File: SAMPLE-MPT/20220309_SSB_Cell_03_Form01/20220309_(Form02C)EIS_charging_10bis16V_step_01V+(1C+EIS)50cycle_07_GEIS_C08.mpt
EC-Lab ASCII FILE
Nb header lines : 72

Galvano Electrochemical Impedance Spectroscopy

Run on channel : 8 (SN 14384)
User :
CE vs. WE compliance from -10 V to 10 V
Electrode connection : standard
Potential control : Ewe-Ece
Ewe ctrl range : min = 0,00 V, max = 5,00 V
Safety Limits :
	Do not start on E overload
Acquisition started on : 03/09/2022 13:55:05.456
Technique started on : 03/09/2022 18:22:28.314
Loaded Setting File :  C:\DATA\x_Data_VMP3\Extern\InES\Binbin\001_Testing_Profiles\20220308_(Form02C)EIS_charging_10bis16V_step_01V+(1C+EIS)50cycle.mps
Saved on :
	File : 20220309_(Form02C)EIS_charging_10bis16V_step_01V+(1C+EIS)50cycle_07_GEIS_C08.mpr
	Directory : C:\DATA\x_Data_VMP3\Extern\InES\Binbin\20220309_SSB_Cell_03_Form01\
	Host : 134.169.45.143
Device : VMP3 (SN 0787)
Address : 134.169.45.150
EC-Lab for windows v11.42 (software)
Internet server v11.40 (firmware)
Command interpretor v11.40 (firmware)
Electrode material :
Initial state :
Electrolyte :
Comments :
Electrode surface area : 0,000 cm²
Characteristic mass : 0,001 g
Equivalent Weight : 0,000 g/eq.
Density : 0,000 g/cm3
Volume (V) : 0,001 cm³
Record Ece
Record Power
Cycle Definition : Charge/Discharge alternance
Mode                Single sine
Is                  0,000
unit Is             µA
vs.                 <None>
tIs (h:m:s)         0:00:0,0000
record              0
dE (mV)             0,000
dt (s)              0,000
fi                  1,000
unit fi             MHz
ff                  5,000
unit ff             mHz
Nd                  6
Points              per decade
spacing             Logarithmic
Ia/Va               Ia
Ia                  5,000
unit  Ia            µA
va pourcent         0,10
pw                  0,10
Na                  2
corr                0
E range min (V)     0,000
E range max (V)     5,000
I Range             10 µA
Bandwidth           5
nc cycles           0
goto Ns'            0
nr cycles           0
inc. cycle          0

Number of loops : 1
Loop 0 from point number 0 to 49

freq/Hz	Re(Z)/Ohm	-Im(Z)/Ohm	|Z|/Ohm	Phase(Z)/deg	time/s	<Ewe>/V	<I>/mA	Cs/µF	Cp/µF	cycle number	|Ewe|/V	|I|/A	Ns	I Range	(Q-Qo)/mA.h	<Ece>/V	|Ece|/V	Phase(Zce)/deg	|Zce|/Ohm	Re(Zce)/Ohm	-Im(Zce)/Ohm	Phase(Zwe-ce)/deg	|Zwe-ce|/Ohm	Re(Zwe-ce)/Ohm	-Im(Zwe-ce)/Ohm	P/W	Re(Y)/Ohm-1	Im(Y)/Ohm-1	|Y|/Ohm-1	Phase(Y)/deg	dq/mA.h
1,0000186E+006	-2,8203691E+001	4,6628044E+001	5,4494244E+001	-1,2116830E+002	1,604285800490505E+004	1,3578366E+001	1,1518180E-005	3,4132246E-003	2,4989524E-003	1,000000000000000E+000	2,7675342E-004	5,0785807E-006	0	14	1,867879957638744E-009	1,2473923E+001	2,1363579E-004	4,3303307E+001	4,2066044E+001	3,0612856E+001	-2,8851433E+001	-8,2282043E+001	1,7939119E+001	2,4091644E+000	1,7776611E+001	0,0000000E+000	-9,4974004E-003	1,5701672E-002	1,8350562E-002	1,2116830E+002	1,867879957638744E-009
6,7700600E+005	-1,2178322E+001	3,4581154E+001	3,6662891E+001	-1,0940055E+002	1,604337400492956E+004	1,3578416E+001	1,6076041E-005	6,7981095E-003	6,0480265E-003	1,000000000000000E+000	1,8881692E-004	5,1500824E-006	0	14	4,622377685879858E-009	1,2473041E+001	1,4568801E-004	2,3959991E+001	2,8288483E+001	2,5850843E+001	-1,1487914E+001	-5,9372036E+001	2,6837204E+001	1,3672522E+001	2,3093239E+001	0,0000000E+000	-9,0601202E-003	2,5726818E-002	2,7275536E-002	1,0940055E+002	2,754497728241113E-009
4,5833025E+005	-5,2258716E+000	3,4274437E+001	3,4670547E+001	-9,8669197E+001	1,604375900494785E+004	1,3578407E+001	1,7557657E-005	1,0131442E-002	9,9012610E-003	1,000000000000000E+000	1,7878166E-004	5,1565862E-006	0	14	7,433273840515793E-009	1,2474443E+001	1,2916354E-004	-1,2630133E+001	2,5048265E+001	2,4442144E+001	5,4769654E+000	-6,4200356E+001	4,4152454E+001	1,9216272E+001	3,9751404E+001	0,0000000E+000	-4,3474757E-003	2,8513396E-002	2,8842924E-002	9,8669197E+001	2,810896154635935E-009
3,1029172E+005	1,0297278E+001	3,6905792E+001	3,8315422E+001	-7,4410088E+001	1,604414400496613E+004	1,3578450E+001	1,6216814E-005	1,3898099E-002	1,2894285E-002	1,000000000000000E+000	1,8582898E-004	4,8499787E-006	0	14	7,458220415154907E-009	1,2472680E+001	1,6663938E-004	-2,0631491E+001	3,4358788E+001	3,2155220E+001	1,2106527E+001	-4,9102207E+001	6,4841515E+001	4,2452499E+001	4,9012321E+001	0,0000000E+000	7,0141531E-003	2,5138961E-002	2,6099151E-002	7,4410088E+001	2,494657463911448E-011
2,1007459E+005	3,0950441E+001	9,3007870E+000	3,2317711E+001	-1,6725826E+001	1,604452900498442E+004	1,3578357E+001	1,5246563E-005	8,1456713E-002	6,7466022E-003	1,000000000000000E+000	1,5579489E-004	4,8207276E-006	0	14	1,938620218595588E-009	1,2474524E+001	1,9668635E-004	-2,8991838E+001	4,0800137E+001	3,5687420E+001	1,9775215E+001	-2,3573017E+001	7,2705009E+001	6,6637863E+001	2,9076002E+001	0,0000000E+000	2,9633686E-002	8,9050932E-003	3,0942786E-002	1,6725826E+001	-5,519600196559319E-009
1,4222091E+005	1,9216616E+001	-4,3946414E+000	1,9712717E+001	1,2881439E+001	1,604478300499648E+004	1,3578358E+001	1,6175825E-005	-2,5464389E-001	-1,2655728E-002	1,000000000000000E+000	9,6377116E-005	4,8890834E-006	0	14	4,458167708941276E-009	1,2473361E+001	2,4495000E-004	-4,7313549E+001	5,0101418E+001	3,3968052E+001	3,6828297E+001	-3,1376129E+001	6,2294067E+001	5,3184669E+001	3,2433655E+001	0,0000000E+000	4,9452011E-002	-1,1309164E-002	5,0728675E-002	-1,2881439E+001	2,519547490345688E-009
9,6283031E+004	6,3095875E+000	-5,3622837E+000	8,2803974E+000	4,0359974E+001	1,604503700500855E+004	1,3578258E+001	1,4892380E-005	-3,0826244E-001	-1,2927596E-001	1,000000000000000E+000	3,9872804E-005	4,8153252E-006	0	14	2,660642882568077E-009	1,2472479E+001	3,2569302E-004	-5,2542614E+001	6,7636765E+001	4,1134731E+001	5,3690460E+001	-4,5528751E+001	6,7724266E+001	4,7444321E+001	4,8328178E+001	0,0000000E+000	9,2023470E-002	-7,8207329E-002	1,2076715E-001	-4,0359974E+001	-1,797524826373199E-009
6,5181484E+004	5,1014609E+000	-3,4805095E+000	6,1756659E+000	3,4304054E+001	1,604542200502683E+004	1,3578294E+001	1,6437018E-005	-7,0154101E-001	-2,2282870E-001	1,000000000000000E+000	3,0032432E-005	4,8630272E-006	0	14	7,307906066350887E-009	1,2474283E+001	4,2858245E-004	-5,1238697E+001	8,8130791E+001	5,5176689E+001	6,8720955E+001	-4,7263973E+001	8,8824387E+001	6,0278149E+001	6,5240448E+001	0,0000000E+000	1,3376021E-001	-9,1258898E-002	1,6192585E-001	-3,4304054E+001	4,647263183782809E-009
4,4128563E+004	2,5004065E+000	-3,4341183E+000	4,2479644E+000	5,3941364E+001	1,604580700504512E+004	1,3578331E+001	1,8624693E-005	-1,0502316E+000	-6,8636298E-001	1,000000000000000E+000	2,0376472E-005	4,7967615E-006	0	14	9,654259152505852E-009	1,2472519E+001	5,5307522E-004	-5,4284294E+001	1,1530180E+002	6,7309013E+001	9,3616241E+001	-5,2256771E+001	1,1404459E+002	6,9809418E+001	9,0182121E+001	0,0000000E+000	1,3856351E-001	-1,9030645E-001	2,3540688E-001	-5,3941364E+001	2,346353086154964E-009
2,9876783E+004	1,5566438E+000	-3,6399260E+000	3,9588132E+000	6,6845634E+001	1,604619200506341E+004	1,3578310E+001	1,8319042E-005	-1,4635035E+000	-1,2372254E+000	1,000000000000000E+000	1,8752509E-005	4,7369017E-006	0	14	1,430039418363549E-008	1,2474885E+001	6,8740931E-004	-5,3200615E+001	1,4511792E+002	8,6927818E+001	1,1620140E+002	-5,1829147E+001	1,4317676E+002	8,8484459E+001	1,1256148E+002	0,0000000E+000	9,9325158E-002	-2,3225366E-001	2,5260097E-001	-6,6845634E+001	4,646135031129638E-009
2,0227139E+004	2,5050535E+000	-1,7784454E+000	3,0721591E+000	3,5372581E+001	1,604657700508169E+004	1,3578328E+001	1,4596783E-005	-4,4243059E+000	-1,4826506E+000	1,000000000000000E+000	1,4462583E-005	4,7076282E-006	0	14	1,291066881131858E-008	1,2473601E+001	8,8034087E-004	-5,4521542E+001	1,8700305E+002	1,0853598E+002	1,5228290E+002	-5,3580379E+001	1,8703397E+002	1,1104103E+002	1,5050446E+002	0,0000000E+000	2,6541755E-001	-1,8843134E-001	3,2550398E-001	-3,5372581E+001	-1,389725372316913E-009
1,3695073E+004	1,3243133E+000	-2,5018471E-001	1,3477381E+000	1,0698042E+001	1,604696200509998E+004	1,3578308E+001	1,4185521E-005	-4,6450993E+001	-1,6006837E+000	1,000000000000000E+000	6,3580637E-006	4,7175809E-006	0	14	1,332950212311188E-008	1,2475686E+001	1,1109420E-003	-5,4675564E+001	2,3548976E+002	1,3616150E+002	1,9213400E+002	-5,4378193E+001	2,3605455E+002	1,3748581E+002	1,9188382E+002	0,0000000E+000	7,2908759E-001	-1,3773672E-001	7,4198389E-001	-1,0698042E+001	4,188333117933010E-010
9,2692256E+003	1,0277617E+000	2,4057145E+000	2,6160574E+000	-6,6867012E+001	1,604734700511827E+004	1,3578292E+001	1,4432949E-005	7,1372771E+000	6,0356803E+000	1,000000000000000E+000	1,2437837E-005	4,7544204E-006	0	14	1,651909910024566E-008	1,2473361E+001	1,4319133E-003	-5,3829185E+001	3,0117517E+002	1,7775194E+002	2,4312698E+002	-5,3940517E+001	3,0372437E+002	1,7877969E+002	2,4553270E+002	0,0000000E+000	1,5017508E-001	3,5151958E-001	3,8225460E-001	6,6867012E+001	3,189596977133786E-009
6,2722681E+003	2,1509774E+000	9,1779053E-001	2,3385985E+000	-2,3107233E+001	1,604773200513655E+004	1,3578110E+001	1,8613873E-005	2,7647249E+001	4,2582164E+000	1,000000000000000E+000	1,1234200E-005	4,8038178E-006	0	14	2,076208492171519E-008	1,2474765E+001	1,8715924E-003	-5,3306190E+001	3,8960519E+002	2,3280411E+002	3,1240112E+002	-5,3134094E+001	3,9162817E+002	2,3495508E+002	3,1331891E+002	0,0000000E+000	3,9330050E-001	1,6781557E-001	4,2760652E-001	2,3107233E+001	4,242985821469525E-009
4,2448467E+003	3,6235890E-001	2,4636385E+000	2,4901443E+000	-8,1632767E+001	1,604815800515679E+004	1,3578213E+001	1,2328866E-005	1,5218825E+001	1,4896564E+001	1,000000000000000E+000	1,2121845E-005	4,8679290E-006	0	14	1,712878692954768E-008	1,2473001E+001	2,4076528E-003	-5,1776920E+001	4,9459488E+002	3,0601816E+002	3,8855756E+002	-5,1919903E+001	4,9675610E+002	3,0638052E+002	3,9102121E+002	0,0000000E+000	5,8437280E-002	3,9730859E-001	4,0158316E-001	8,1632767E+001	-3,633297992167509E-009
2,8779956E+003	1,2220209E+000	1,9372651E-001	1,2372813E+000	-9,0081148E+000	1,604855900517583E+004	1,3578179E+001	7,4769368E-006	2,8545715E+002	6,9981318E+000	1,000000000000000E+000	5,6874756E-006	4,5967522E-006	0	14	1,380010026538988E-008	1,2472359E+001	2,8513141E-003	-4,9731213E+001	6,2028888E+002	4,0093875E+002	4,7329315E+002	-4,9656761E+001	6,2122711E+002	4,0216077E+002	4,7348688E+002	0,0000000E+000	7,9825515E-001	1,2654708E-001	8,0822361E-001	9,0081148E+000	-3,328686664157803E-009
1,9481171E+003	4,0100279E+000	-1,8143356E+000	4,4013791E+000	2,4344355E+001	1,604923400520789E+004	1,3578234E+001	6,4950636E-006	-4,5028500E+001	-7,6514745E+000	1,000000000000000E+000	2,1534384E-005	4,8926449E-006	0	14	1,284473706302454E-008	1,2477410E+001	3,7758208E-003	-4,7164570E+001	7,7173407E+002	5,2469806E+002	5,6591998E+002	-4,6855232E+001	7,7314124E+002	5,2870807E+002	5,6410565E+002	0,0000000E+000	2,0699976E-001	-9,3656965E-002	2,2720152E-001	-2,4344355E+001	-9,553632023653321E-010
1,3187339E+003	2,9564302E+000	3,3215800E-001	2,9750309E+000	-6,4103580E+000	1,604967900522903E+004	1,3578207E+001	6,2192748E-006	3,6334421E+002	4,5292335E+000	1,000000000000000E+000	1,4351771E-005	4,8240745E-006	0	14	1,538733284895165E-008	1,2475566E+001	4,5813788E-003	-4,4462585E+001	9,4969073E+002	6,7780188E+002	6,6520459E+002	-4,4352226E+001	9,5203522E+002	6,8075830E+002	6,6553674E+002	0,0000000E+000	3,3402941E-001	3,7528548E-002	3,3613098E-001	6,4103580E+000	2,542595785927105E-009
8,9299957E+002	-4,5571834E-001	2,6549854E+000	2,6938126E+000	-9,9739693E+001	1,605012500525021E+004	1,3578271E+001	5,4997490E-006	6,7128471E+001	6,5207306E+001	1,000000000000000E+000	1,2906386E-005	4,7911221E-006	0	14	1,809976867815522E-008	1,2479615E+001	5,4785144E-003	-4,1187458E+001	1,1434720E+003	8,6053027E+002	7,5300464E+002	-4,1302467E+001	1,1448798E+003	8,6007458E+002	7,5565961E+002	0,0000000E+000	-6,2800288E-002	3,6587048E-001	3,7122107E-001	9,9739693E+001	2,712435829203567E-009
6,0441974E+002	3,7813354E+000	1,2802279E+000	3,9921775E+000	-1,8704302E+001	1,605056900527130E+004	1,3578247E+001	6,6745729E-006	2,0568102E+002	2,1151886E+001	1,000000000000000E+000	1,9070561E-005	4,7769822E-006	0	14	1,982924280225815E-008	1,2469192E+001	6,4974730E-003	-3,8274395E+001	1,3601627E+003	1,0678002E+003	8,4252325E+002	-3,8218220E+001	1,3639249E+003	1,0715815E+003	8,4380347E+002	0,0000000E+000	2,3726054E-001	8,0328114E-002	2,5048986E-001	1,8704302E+001	1,729474124102934E-009
4,0908368E+002	9,4890839E-001	2,3765128E+000	2,5589528E+000	-6,8233864E+001	1,605101500529249E+004	1,3578250E+001	9,0066724E-006	1,6370721E+002	1,4119638E+002	1,000000000000000E+000	1,2202004E-005	4,7683584E-006	0	14	1,963317153823457E-008	1,2482662E+001	7,5775189E-003	-3,5221027E+001	1,5891252E+003	1,2982094E+003	9,1649963E+002	-3,5271229E+001	1,5912716E+003	1,2991582E+003	9,1887616E+002	0,0000000E+000	1,4491045E-001	3,6292392E-001	3,9078486E-001	6,8233864E+001	-1,960712640235843E-010
2,7686047E+002	3,2736483E+000	2,7021214E-001	3,2847812E+000	-4,7185884E+000	1,605145600531343E+004	1,3578059E+001	6,2685344E-006	2,1274253E+003	1,4396308E+001	1,000000000000000E+000	1,5652578E-005	4,7651815E-006	0	14	2,052788237371791E-008	1,2467789E+001	8,7696929E-003	-3,2372841E+001	1,8403691E+003	1,5543423E+003	9,8538245E+002	-3,2325451E+001	1,8432793E+003	1,5576160E+003	9,8565265E+002	0,0000000E+000	3,0340245E-001	2,5043324E-002	3,0443427E-001	4,7185884E+000	8,947108354833413E-010
1,8742110E+002	4,3725014E+000	-3,7652800E+000	5,7702775E+000	4,0732635E+001	1,605190700533486E+004	1,3578092E+001	6,5062591E-006	-2,2553003E+002	-9,6029694E+001	1,000000000000000E+000	2,7486192E-005	4,7634089E-006	0	14	2,192761491932060E-008	1,2470555E+001	1,0021047E-002	-2,9550919E+001	2,1037554E+003	1,8300941E+003	1,0375656E+003	-2,9403116E+001	2,1057092E+003	1,8344667E+003	1,0338003E+003	0,0000000E+000	1,3132173E-001	-1,1308470E-001	1,7330189E-001	-4,0732635E+001	1,399732545602697E-009
1,2699121E+002	1,1874558E+001	-1,0076866E+000	1,1917238E+001	4,8505545E+000	1,605234500535566E+004	1,3578088E+001	7,3082551E-006	-1,2437153E+003	-8,8924351E+000	1,000000000000000E+000	5,6757286E-005	4,7626208E-006	0	14	2,068020591253293E-008	1,2483785E+001	1,1312905E-002	-2,6825708E+001	2,3753528E+003	2,1197253E+003	1,0719445E+003	-2,6675404E+001	2,3855027E+003	2,1315999E+003	1,0709368E+003	0,0000000E+000	8,3611540E-002	-7,0953569E-003	8,3912060E-002	-4,8505545E+000	-1,247409006787671E-009
8,5907173E+001	1,4457803E+001	1,2104892E+001	1,8856205E+001	-3,9937977E+001	1,605278600537661E+004	1,3578098E+001	7,1362138E-006	1,5304875E+002	6,3072933E+001	1,000000000000000E+000	8,9761226E-005	4,7603016E-006	0	14	1,803669726707666E-008	1,2484185E+001	1,2540065E-002	-2,4249704E+001	2,6343005E+003	2,4018608E+003	1,0819445E+003	-2,4359842E+001	2,6524592E+003	2,4163186E+003	1,0940493E+003	0,0000000E+000	4,0662467E-002	3,4044921E-002	5,3032942E-002	3,9937977E+001	-2,643508645456274E-009
5,8157570E+001	5,3800573E+000	7,9654722E+000	9,6121674E+000	-5,5964031E+001	1,605324500539841E+004	1,3578779E+001	6,9126681E-006	3,4355981E+002	2,3592978E+002	1,000000000000000E+000	4,5768778E-005	4,7615463E-006	0	14	2,118400067269022E-008	1,2485067E+001	1,3925159E-002	-2,1480234E+001	2,9245037E+003	2,7213792E+003	1,0708954E+003	-2,1586565E+001	2,9324319E+003	2,7267593E+003	1,0788608E+003	0,0000000E+000	5,8229662E-002	8,6212233E-002	1,0403481E-001	5,5964031E+001	3,147303405613558E-009
3,9407314E+001	7,6707077E+000	-6,6829866E-001	7,6997647E+000	4,9792342E+000	1,605369500541978E+004	1,3578120E+001	6,9070711E-006	-6,0432798E+003	-4,5525948E+001	1,000000000000000E+000	3,6656613E-005	4,7607446E-006	0	14	2,875445299089405E-008	1,2470555E+001	1,5177603E-002	-1,8905912E+001	3,1880732E+003	3,0160828E+003	1,0329836E+003	-1,8850004E+001	3,1951150E+003	3,0237534E+003	1,0323153E+003	0,0000000E+000	1,2938398E-001	-1,1272381E-002	1,2987410E-001	-4,9792342E+000	7,570452318203834E-009
2,6682035E+001	5,9015193E+000	1,6641074E+000	6,1316543E+000	-1,5747363E+001	1,605411400543968E+004	1,3578083E+001	4,9832461E-006	3,5844275E+003	2,6401416E+002	1,000000000000000E+000	2,9204986E-005	4,7629865E-006	0	14	2,706271629605478E-008	1,2488636E+001	1,6358908E-002	-1,6220417E+001	3,4345906E+003	3,2978740E+003	9,5939545E+002	-1,6219574E+001	3,4407222E+003	3,3037756E+003	9,6105957E+002	0,0000000E+000	1,5696706E-001	4,4261489E-002	1,6308813E-001	1,5747363E+001	-1,691736694839266E-009
1,8042725E+001	1,3456397E+000	3,8877113E+000	4,1140060E+000	-7,0907913E+001	1,605460400546296E+004	1,3578128E+001	1,1130340E-005	2,2689451E+003	2,0261993E+003	1,000000000000000E+000	1,9585010E-005	4,7605690E-006	0	14	4,072686292361519E-008	1,2477450E+001	1,7362505E-002	-1,3621113E+001	3,6471492E+003	3,5445706E+003	8,5890460E+002	-1,3675459E+001	3,6493743E+003	3,5459163E+003	8,6279230E+002	0,0000000E+000	7,9505809E-002	2,2970168E-001	2,4307208E-001	7,0907913E+001	1,366414662756041E-008
1,2226137E+001	-2,2552919E+000	1,0091115E+001	1,0340065E+001	-1,0259816E+002	1,605497200548043E+004	1,3578186E+001	7,0615738E-006	1,2900060E+003	1,2286367E+003	1,000000000000000E+000	4,9222454E-005	4,7603621E-006	0	14	1,319767603781783E-008	1,2470475E+001	1,8187482E-002	-1,1405952E+001	3,8206089E+003	3,7451543E+003	7,5556049E+002	-1,1560992E+001	3,8204077E+003	3,7428989E+003	7,6565161E+002	0,0000000E+000	-2,1093860E-002	9,4382748E-002	9,6711189E-002	1,0259816E+002	-2,752918688579737E-008
8,2759562E+000	4,0693808E+000	4,8829784E+000	6,3563619E+000	-5,0192822E+001	1,605550400550570E+004	1,3578202E+001	9,1309521E-006	3,9383755E+003	2,3241787E+003	1,000000000000000E+000	3,0269019E-005	4,7620038E-006	0	14	5,925533376532460E-008	1,2470796E+001	1,8873345E-002	-9,6784439E+000	3,9633201E+003	3,9069092E+003	6,6630750E+002	-9,7380676E+000	3,9681545E+003	3,9109785E+003	6,7119049E+002	0,0000000E+000	1,0071893E-001	1,2085582E-001	1,5732270E-001	5,0192822E+001	4,605765772750677E-008
5,6043758E+000	6,7611260E+000	1,7386703E+000	6,9811029E+000	-1,4421530E+001	1,605590300552465E+004	1,3578234E+001	6,9391722E-006	1,6333364E+004	1,0131227E+003	1,000000000000000E+000	3,3242479E-005	4,7617805E-006	0	14	3,043116068267990E-008	1,2493687E+001	1,9442432E-002	-8,3666496E+000	4,0830171E+003	4,0395623E+003	5,9410828E+002	-8,3769646E+000	4,0899592E+003	4,0463235E+003	5,9584692E+002	0,0000000E+000	1,3873017E-001	3,5675425E-002	1,4324383E-001	1,4421530E+001	-2,882417308264469E-008
3,7924759E+000	3,5587730E+000	9,6326056E+000	1,0268980E+001	-6,9723213E+001	1,605648200555216E+004	1,3578216E+001	6,6514258E-006	4,3566587E+003	3,8334204E+003	1,000000000000000E+000	4,8891736E-005	4,7611093E-006	0	14	-2,051946181185510E-008	1,2486752E+001	1,9949704E-002	-7,2999988E+000	4,1901377E+003	4,1561743E+003	5,3241809E+002	-7,4243226E+000	4,1949014E+003	4,1597329E+003	5,4205072E+002	0,0000000E+000	3,3747815E-002	9,1345914E-002	9,7380653E-002	6,9723213E+001	-5,095062249453501E-008
2,5682116E+000	4,4274683E+000	-1,4730982E+000	4,6661005E+000	1,8403210E+001	1,605732400559215E+004	1,3578275E+001	6,4411965E-006	-4,2068559E+004	-4,1928838E+003	1,000000000000000E+000	2,2214208E-005	4,7607650E-006	0	14	-9,245385208367276E-009	1,2465464E+001	2,0493714E-002	-6,9152727E+000	4,3047104E+003	4,2733950E+003	5,1829346E+002	-6,8887396E+000	4,3089287E+003	4,2778223E+003	5,1682037E+002	0,0000000E+000	2,0335145E-001	-6,7658678E-002	2,1431172E-001	-1,8403210E+001	1,127407660348783E-008
1,7399776E+000	5,8122430E+000	1,1623726E+000	5,9273334E+000	-1,1309211E+001	1,605855700565071E+004	1,3578245E+001	7,4511622E-006	7,8692094E+004	3,0262383E+003	1,000000000000000E+000	2,8218714E-005	4,7607773E-006	0	14	8,453583682744339E-008	1,2456323E+001	2,0928590E-002	-6,7884607E+000	4,3960444E+003	4,3652251E+003	5,1962994E+002	-6,7945418E+000	4,4019531E+003	4,3710371E+003	5,2079230E+002	0,0000000E+000	1,6543412E-001	3,3084657E-002	1,6870993E-001	1,1309211E+001	9,378122203581067E-008
1,1772907E+000	7,6750326E+000	3,2421596E+000	8,3317299E+000	-2,2900627E+001	1,606036600573664E+004	1,3578123E+001	7,4827690E-006	4,1696734E+004	6,3139404E+003	1,000000000000000E+000	3,9667557E-005	4,7610229E-006	0	14	2,113833059447580E-007	1,2459810E+001	2,1423461E-002	-6,6942530E+000	4,4997603E+003	4,4690825E+003	5,2454211E+002	-6,7238107E+000	4,5077612E+003	4,4767573E+003	5,2778430E+002	0,0000000E+000	1,1056301E-001	4,6705071E-002	1,2002309E-001	2,2900627E+001	1,268474691173146E-007
7,9621863E-001	8,0287514E+000	4,1309047E+000	9,0291319E+000	-2,7226454E+001	1,606303100586322E+004	1,3578151E+001	7,0655378E-006	4,8388555E+004	1,0128403E+004	1,000000000000000E+000	4,2994703E-005	4,7617759E-006	0	14	2,792871608347522E-007	1,2477130E+001	2,1999732E-002	-6,7545652E+000	4,6200688E+003	4,5880015E+003	5,4339642E+002	-6,7936563E+000	4,6285288E+003	4,5960303E+003	5,4752734E+002	0,0000000E+000	9,8481812E-002	5,0670266E-002	1,1075262E-001	2,7226454E+001	6,790385488999424E-008
5,3938830E-001	8,9616032E+000	1,4301975E+000	9,0750093E+000	-9,0674658E+000	1,606695500604960E+004	1,3578126E+001	6,2735926E-006	2,0631111E+005	5,1241338E+003	1,000000000000000E+000	4,3212680E-005	4,7617227E-006	0	14	1,937294516127205E-007	1,2491763E+001	2,2657355E-002	-7,0164089E+000	4,7582266E+003	4,7225933E+003	5,8123450E+002	-7,0203128E+000	4,7672959E+003	4,7315547E+003	5,8266467E+002	0,0000000E+000	1,0881569E-001	1,7366081E-002	1,1019272E-001	9,0674658E+000	-8,555770922203170E-008
3,6507010E-001	1,0940921E+001	-2,1881199E+000	1,1157581E+001	1,1309608E+001	1,607274400632456E+004	1,3578012E+001	7,0161527E-006	-1,9923825E+005	-7,6625767E+003	1,000000000000000E+000	5,3121825E-005	4,7610520E-006	0	14	-1,474595074292830E-007	1,2502267E+001	2,3406150E-002	-7,2466769E+000	4,9161719E+003	4,8769028E+003	6,2013300E+002	-7,2053838E+000	4,9267505E+003	4,8878438E+003	6,1794489E+002	0,0000000E+000	8,7884799E-002	-1,7576443E-002	8,9625157E-002	-1,1309608E+001	-3,411889590420035E-007
2,4724665E-001	1,4285184E+001	7,9855242E+000	1,6365667E+001	-2,9205517E+001	1,608128400673019E+004	1,3577931E+001	6,9935604E-006	8,0609508E+004	1,9192242E+004	1,000000000000000E+000	7,7918266E-005	4,7610811E-006	0	14	-6,775700637695144E-007	1,2501625E+001	2,4401596E-002	-7,4513392E+000	5,1252217E+003	5,0819409E+003	6,6465985E+002	-7,5189466E+000	5,1404253E+003	5,0962261E+003	6,7264539E+002	0,0000000E+000	5,3335745E-002	2,9815082E-002	6,1103527E-002	2,9205517E+001	-5,301105563402315E-007
1,6750640E-001	1,6885874E+001	-3,3361378E+000	1,7212278E+001	1,1175982E+001	1,609388200732856E+004	1,3577813E+001	6,7977289E-006	-2,8480313E+005	-1,0699314E+004	1,000000000000000E+000	8,1949001E-005	4,7610783E-006	0	14	-1,104790364201007E-006	1,2490159E+001	2,5548924E-002	-8,1994848E+000	5,3662051E+003	5,3113491E+003	7,6532837E+002	-8,1386995E+000	5,3824453E+003	5,3282349E+003	7,6199225E+002	0,0000000E+000	5,6996319E-002	-1,1260749E-002	5,8098063E-002	-1,1175982E+001	-4,272203004314924E-007
1,1320493E-001	2,9412832E+000	-2,0025692E+000	3,5582905E+000	3,4248947E+001	1,611251500821358E+004	1,3578051E+001	6,7634633E-006	-7,0204875E+005	-2,2236147E+005	1,000000000000000E+000	1,6940901E-005	4,7609665E-006	0	14	-9,078415069335570E-007	1,2475286E+001	2,6860962E-002	-9,2895555E+000	5,6419136E+003	5,5679209E+003	9,1073987E+002	-9,2646751E+000	5,6444937E+003	5,5708623E+003	9,0873730E+002	0,0000000E+000	2,3230261E-001	-1,5816297E-001	2,8103384E-001	-3,4248947E+001	1,969488572674499E-007
7,6773763E-002	2,1935146E+001	7,6229709E-001	2,1948389E+001	-1,9903598E+000	1,613998100951815E+004	1,3578290E+001	6,7937449E-006	2,7194623E+006	3,2803960E+003	1,000000000000000E+000	1,0449391E-004	4,7608919E-006	0	14	4,717672253159119E-007	1,2462977E+001	2,7955633E-002	-1,0374847E+001	5,8719316E+003	5,7759292E+003	1,0574606E+003	-1,0343735E+001	5,8936460E+003	5,7978643E+003	1,0582229E+003	0,0000000E+000	4,5533940E-002	1,5824097E-003	4,5561429E-002	1,9903598E+000	1,379608732249469E-006
5,1879965E-002	1,9164373E+001	-1,0017544E+001	2,1624624E+001	2,7596832E+001	1,618061901144835E+004	1,3578407E+001	6,4063925E-006	-3,0623809E+005	-6,5718039E+004	1,000000000000000E+000	1,0294794E-004	4,7606809E-006	0	14	3,167246979145293E-006	1,2460412E+001	2,9245902E-002	-1,1274693E+001	6,1432183E+003	6,0246611E+003	1,2010790E+003	-1,1148465E+001	6,1600693E+003	6,0438257E+003	1,1910614E+003	0,0000000E+000	4,0982410E-002	-2,1422200E-002	4,6243578E-002	-2,7596832E+001	2,695479753829381E-006
3,5195883E-002	1,4164393E+000	4,6739001E+000	4,8838143E+000	-7,3140411E+001	1,624051301429316E+004	1,3578528E+001	6,6675634E-006	9,6749519E+005	8,8611356E+005	1,000000000000000E+000	2,3251170E-005	4,7608628E-006	0	14	6,471616451270090E-006	1,2470876E+001	3,0706156E-002	-1,1251247E+001	6,4497041E+003	6,3257476E+003	1,2584126E+003	-1,1289501E+001	6,4520068E+003	6,3271641E+003	1,2630865E+003	0,0000000E+000	5,9385400E-002	1,9595715E-001	2,0475799E-001	7,3140411E+001	3,304369472124797E-006
2,3795672E-002	2,0145840E+001	6,8174072E+001	7,1088387E+001	-7,3537277E+001	1,632909301850048E+004	1,3578334E+001	6,7179712E-006	9,8107656E+004	9,0228570E+004	1,000000000000000E+000	3,3845339E-004	4,7610224E-006	0	14	8,040537028501452E-006	1,2493206E+001	3,2507543E-002	-1,1336457E+001	6,8278491E+003	6,6946362E+003	1,3421509E+003	-1,1861583E+001	6,8612910E+003	6,7147822E+003	1,4103250E+003	0,0000000E+000	3,9864662E-003	1,3490309E-002	1,4066995E-002	7,3537277E+001	1,568920577231363E-006
1,6098291E-002	2,8687117E+001	-9,6280088E+000	3,0259697E+001	1,8552851E+001	1,646001902471913E+004	1,3578282E+001	6,7376877E-006	-1,0268426E+006	-1,0395555E+005	1,000000000000000E+000	1,4406697E-004	4,7610183E-006	0	14	4,620268234953073E-006	1,2520428E+001	3,4535546E-002	-1,1376313E+001	7,2538149E+003	7,1112979E+003	1,4308301E+003	-1,1257493E+001	7,2800547E+003	7,1399849E+003	1,4212020E+003	0,0000000E+000	3,1329811E-002	-1,0514953E-002	3,3047259E-002	-1,8552851E+001	-3,420268793548379E-006
1,0915886E-002	3,6030323E+001	9,3233519E+000	3,7217052E+001	-1,4507865E+001	1,665309603388980E+004	1,3577954E+001	7,0015758E-006	1,5638283E+006	9,8140727E+004	1,000000000000000E+000	1,7719161E-004	4,7610329E-006	0	14	-6,380204484279805E-006	1,2541716E+001	3,7041474E-002	-1,0989233E+001	7,7801343E+003	7,6374702E+003	1,4830845E+003	-1,1005975E+001	7,8172817E+003	7,6735005E+003	1,4924078E+003	0,0000000E+000	2,6012626E-002	6,7311320E-003	2,6869403E-002	1,4507865E+001	-1,100047271923288E-005
7,3873415E-003	5,9569269E-001	3,6480865E+001	3,6485729E+001	-8,9064507E+001	1,693838704744040E+004	1,3577824E+001	6,8348063E-006	5,9056375E+005	5,9040638E+005	1,000000000000000E+000	1,7371157E-004	4,7610824E-006	0	14	-2,382248969341516E-005	1,2547729E+001	4,0075369E-002	-1,0929689E+001	8,4172813E+003	8,2645967E+003	1,5959523E+003	-1,1172521E+001	8,4248584E+003	8,2651924E+003	1,6324331E+003	0,0000000E+000	4,4748222E-004	2,7404323E-002	2,7407976E-002	8,9064507E+001	-1,744228520913535E-005
5,0018891E-003	2,0760176E+001	1,4418211E+001	2,5275871E+001	-3,4780479E+001	1,735972906745307E+004	1,3577901E+001	7,3974811E-006	2,2068595E+006	7,1810038E+005	1,000000000000000E+000	1,2033475E-004	4,7608546E-006	0	14	-4,078642520393821E-005	1,2538949E+001	4,3302391E-002	-1,1572311E+001	9,0955078E+003	8,9106172E+003	1,8245999E+003	-1,1634896E+001	9,1187432E+003	8,9313770E+003	1,8390181E+003	0,0000000E+000	3,2495167E-002	2,2568313E-002	3,9563425E-002	3,4780479E+001	-1,696393551052305E-005