File: SAMPLE-MPT/20220309_SSB_Cell_03_Form01/20220309_(Form02C)EIS_charging_10bis16V_step_01V+(1C+EIS)50cycle_08_GCPL6_C08.mpt
EC-Lab ASCII FILE
Nb header lines : 76

Galvanostatic Cycling with Potential Limitation 6

Run on channel : 8 (SN 14384)
User :
CE vs. WE compliance from -10 V to 10 V
Electrode connection : standard
Potential control : Ewe-Ece
Ecell ctrl range : min = 0,00 V, max = 5,00 V
Safety Limits :
	Do not start on E overload
Acquisition started on : 03/09/2022 13:55:05.456
Technique started on : 03/09/2022 18:44:25.237
Loaded Setting File :  C:\DATA\x_Data_VMP3\Extern\InES\Binbin\001_Testing_Profiles\20220308_(Form02C)EIS_charging_10bis16V_step_01V+(1C+EIS)50cycle.mps
Saved on :
	File : 20220309_(Form02C)EIS_charging_10bis16V_step_01V+(1C+EIS)50cycle_08_GCPL6_C08.mpr
	Directory : C:\DATA\x_Data_VMP3\Extern\InES\Binbin\20220309_SSB_Cell_03_Form01\
	Host : 134.169.45.143
Device : VMP3 (SN 0787)
Address : 134.169.45.150
EC-Lab for windows v11.42 (software)
Internet server v11.40 (firmware)
Command interpretor v11.40 (firmware)
Electrode material :
Initial state :
Electrolyte :
Comments :
Electrode surface area : 0,000 cm²
Characteristic mass : 0,001 g
Equivalent Weight : 0,000 g/eq.
Density : 0,000 g/cm3
Volume (V) : 0,001 cm³
Record Ece
Record Power
Cycle Definition : Charge/Discharge alternance
Ns                  0                   1
Set I/C             I                   I
Is                  0,000               20,000
unit Is             mA                  µA
vs.                 <None>              <None>
N                   1,00                1,00
I sign              > 0                 > 0
t1 (h:m:s)          0:00:0,0000         20:00:0,0000
I Range             100 µA              100 µA
Bandwidth           5                   5
dE1 (mV)            0,00                0,00
dt1 (s)             0,0000              5,0000
EM (V)              0,000               1,300
tM (h:m:s)          0:00:0,0000         10:00:0,0000
Im                  0,000               10,000
unit Im             mA                  µA
dI/dt               0,000               0,000
dunit dI/dt         mA/s                mA/s
E range min (V)     0,000               0,000
E range max (V)     5,000               5,000
dq                  0,000               1,000
unit dq             mA.h                mA.h
dtq (s)             0,0000              120,0000
dQM                 0,000               0,000
unit dQM            mA.h                mA.h
dxM                 0,000               0,000
delta SoC (%)       pass                pass
tR (h:m:s)          0:00:10,0000        0:01:0,0000
dER/dt (mV/h)       0,0                 0,1
dER (mV)            0,00                0,00
dtR (s)             1,0000              120,0000
EL (V)              pass                pass
goto Ns'            0                   0
nc cycles           0                   0

Number of loops : 1
Loop 0 from point number 0 to 163

mode	ox/red	error	control changes	Ns changes	counter inc.	Ns	time/s	dq/mA.h	(Q-Qo)/mA.h	control/V/mA	Ewe/V	I Range	Q charge/discharge/mA.h	half cycle	Ece/V	P/W	Energy charge/W.h	Energy discharge/W.h	Capacitance charge/µF	Capacitance discharge/µF	<I>/mA	Q discharge/mA.h	Q charge/mA.h	Capacity/mA.h	Efficiency/%	control/V	control/mA	cycle number	 Ecell/V
3	1	0	1	0	0	0	1,735978086745553E+004	0,000000000000000E+000	0,000000000000000E+000	0,0000000E+000	1,0514146E+001	14	0,000000000000000E+000	0	1,3591439E+001	0,0000000E+000	0,000000000000000E+000	0,000000000000000E+000	0,000000000000000E+000	0,000000000000000E+000	0,000000000000000E+000	0,000000000000000E+000	0,000000000000000E+000	0,000000000000000E+000	0,0000000E+000	0,0000000E+000	0,0000000E+000	0,000000000000000E+000	-3,0772934E+000
3	1	0	1	0	0	0	1,736178086743131E+004	0,000000000000000E+000	0,000000000000000E+000	0,0000000E+000	1,4632150E+001	14	0,000000000000000E+000	0	1,3578872E+001	0,0000000E+000	0,000000000000000E+000	0,000000000000000E+000	0,000000000000000E+000	0,000000000000000E+000	0,000000000000000E+000	0,000000000000000E+000	0,000000000000000E+000	0,000000000000000E+000	0,0000000E+000	0,0000000E+000	0,0000000E+000	0,000000000000000E+000	1,0532780E+000
3	1	0	1	0	0	0	1,736378086740710E+004	0,000000000000000E+000	0,000000000000000E+000	0,0000000E+000	1,4632390E+001	14	0,000000000000000E+000	0	1,3578110E+001	0,0000000E+000	0,000000000000000E+000	0,000000000000000E+000	0,000000000000000E+000	0,000000000000000E+000	0,000000000000000E+000	0,000000000000000E+000	0,000000000000000E+000	0,000000000000000E+000	0,0000000E+000	0,0000000E+000	0,0000000E+000	0,000000000000000E+000	1,0542803E+000
3	1	0	1	0	0	0	1,736578086738288E+004	0,000000000000000E+000	0,000000000000000E+000	0,0000000E+000	1,4632390E+001	14	0,000000000000000E+000	0	1,3577067E+001	0,0000000E+000	0,000000000000000E+000	0,000000000000000E+000	0,000000000000000E+000	0,000000000000000E+000	0,000000000000000E+000	0,000000000000000E+000	0,000000000000000E+000	0,000000000000000E+000	0,0000000E+000	0,0000000E+000	0,0000000E+000	0,000000000000000E+000	1,0553226E+000
3	1	0	1	0	0	0	1,736778086735867E+004	0,000000000000000E+000	0,000000000000000E+000	0,0000000E+000	1,4633914E+001	14	0,000000000000000E+000	0	1,3578030E+001	0,0000000E+000	0,000000000000000E+000	0,000000000000000E+000	0,000000000000000E+000	0,000000000000000E+000	0,000000000000000E+000	0,000000000000000E+000	0,000000000000000E+000	0,000000000000000E+000	0,0000000E+000	0,0000000E+000	0,0000000E+000	0,000000000000000E+000	1,0558844E+000
3	1	0	0	0	0	0	1,736978066733445E+004	0,000000000000000E+000	0,000000000000000E+000	2,0000001E-002	1,3579241E+001	13	0,000000000000000E+000	0	1,2523489E+001	0,0000000E+000	0,000000000000000E+000	0,000000000000000E+000	0,000000000000000E+000	0,000000000000000E+000	0,000000000000000E+000	0,000000000000000E+000	0,000000000000000E+000	0,000000000000000E+000	0,0000000E+000	0,0000000E+000	0,0000000E+000	0,000000000000000E+000	1,0557518E+000
1	1	0	0	0	0	1	1,737478106727391E+004	2,785819415634291E-005	2,786041371617466E-005	2,0000001E-002	1,3578218E+001	13	2,786041371617466E-005	0	1,2375154E+001	2,7235056E-004	3,782879829340282E-007	0,000000000000000E+000	3,273339185414159E+001	0,000000000000000E+000	2,005790003541177E-002	0,000000000000000E+000	2,786041371617466E-005	2,786041371617466E-005	0,0000000E+000	0,0000000E+000	2,0000001E-002	0,000000000000000E+000	1,2030649E+000
1	1	0	0	0	0	1	1,738478106715284E+004	2,785670525880737E-005	8,357513565063063E-005	2,0000001E-002	1,3578940E+001	13	8,357513565063063E-005	0	1,2356111E+001	2,7235047E-004	1,134768983675238E-006	0,000000000000000E+000	9,816987219720269E+001	0,000000000000000E+000	2,005682802917321E-002	0,000000000000000E+000	8,357513565063063E-005	8,357513565063063E-005	0,0000000E+000	0,0000000E+000	2,0000001E-002	0,000000000000000E+000	1,2228298E+000
1	1	0	0	0	0	1	1,739478106703177E+004	2,785653116885159E-005	1,392881467363073E-004	2,0000001E-002	1,3578740E+001	13	1,392881467363073E-004	0	1,2345046E+001	2,7234474E-004	1,891245724657938E-006	0,000000000000000E+000	1,636227455477313E+002	0,000000000000000E+000	2,005670268440352E-002	0,000000000000000E+000	1,392881467363073E-004	1,392881467363073E-004	0,0000000E+000	0,0000000E+000	2,0000001E-002	0,000000000000000E+000	1,2336941E+000
1	1	0	0	0	0	1	1,740478106691070E+004	2,785668761676384E-005	1,950014276243746E-004	2,0000001E-002	1,3576976E+001	13	1,950014276243746E-004	0	1,2336387E+001	2,7231089E-004	2,647693744807938E-006	0,000000000000000E+000	2,292014725018176E+002	0,000000000000000E+000	2,005681532690171E-002	0,000000000000000E+000	1,950014276243746E-004	1,950014276243746E-004	0,0000000E+000	0,0000000E+000	2,0000001E-002	0,000000000000000E+000	1,2405891E+000
1	1	0	0	0	0	1	1,741478106678963E+004	2,785626673305200E-005	2,507142324094764E-004	2,0000001E-002	1,3578940E+001	13	2,507142324094765E-004	0	1,2333099E+001	2,7234619E-004	3,404172147458683E-006	0,000000000000000E+000	2,944964906374323E+002	0,000000000000000E+000	2,005651229062552E-002	0,000000000000000E+000	2,507142324094765E-004	2,507142324094765E-004	0,0000000E+000	0,0000000E+000	2,0000001E-002	0,000000000000000E+000	1,2458410E+000
1	1	0	0	0	0	1	1,742478106666855E+004	2,785648476259990E-005	3,064272114192653E-004	2,0000001E-002	1,3577256E+001	13	3,064272114192654E-004	0	1,2327045E+001	2,7231453E-004	4,160638410930184E-006	0,000000000000000E+000	3,601365391705989E+002	0,000000000000000E+000	2,005666927190190E-002	0,000000000000000E+000	3,064272114192654E-004	3,064272114192654E-004	0,0000000E+000	0,0000000E+000	2,0000001E-002	0,000000000000000E+000	1,2502108E+000
1	1	0	0	0	0	1	1,743478106654748E+004	2,785640794235385E-005	3,621400627492823E-004	2,0000001E-002	1,3578780E+001	13	3,621400627492824E-004	0	1,2325361E+001	2,7234436E-004	4,917112982677771E-006	0,000000000000000E+000	4,254028665221337E+002	0,000000000000000E+000	2,005661396132408E-002	0,000000000000000E+000	3,621400627492824E-004	3,621400627492824E-004	0,0000000E+000	0,0000000E+000	2,0000001E-002	0,000000000000000E+000	1,2534189E+000
1	1	0	0	0	0	1	1,744478106642641E+004	2,785662977552662E-005	4,178532712856928E-004	2,0000001E-002	1,3578259E+001	13	4,178532712856930E-004	0	1,2322314E+001	2,7233604E-004	5,673562252113516E-006	0,000000000000000E+000	4,909322671652732E+002	0,000000000000000E+000	2,005677368121041E-002	0,000000000000000E+000	4,178532712856930E-004	4,178532712856930E-004	0,0000000E+000	0,0000000E+000	2,0000001E-002	0,000000000000000E+000	1,2559443E+000
1	1	0	0	0	0	1	1,745478106630534E+004	2,785687107592821E-005	4,735670005974049E-004	2,0000001E-002	1,3577416E+001	13	4,735670005974050E-004	0	1,2318586E+001	2,7232154E-004	6,430011871076389E-006	0,000000000000000E+000	5,565428073798870E+002	0,000000000000000E+000	2,005694741750165E-002	0,000000000000000E+000	4,735670005974050E-004	4,735670005974050E-004	0,0000000E+000	0,0000000E+000	2,0000001E-002	0,000000000000000E+000	1,2588301E+000
1	1	0	0	0	0	1	1,746478106618427E+004	2,785683870936433E-005	5,292808374075426E-004	2,0000001E-002	1,3576575E+001	13	5,292808374075428E-004	0	1,2315459E+001	2,7230434E-004	7,186458513123720E-006	0,000000000000000E+000	6,221893628578894E+002	0,000000000000000E+000	2,005692411357538E-002	0,000000000000000E+000	5,292808374075428E-004	5,292808374075428E-004	0,0000000E+000	0,0000000E+000	2,0000001E-002	0,000000000000000E+000	1,2611160E+000
1	1	0	0	0	0	1	1,747478106606319E+004	2,785673214815971E-005	5,849943479984585E-004	2,0000001E-002	1,3576856E+001	13	5,849943479984586E-004	0	1,2313935E+001	2,7230891E-004	7,942909652149736E-006	0,000000000000000E+000	6,876197173669850E+002	0,000000000000000E+000	2,005684738950712E-002	0,000000000000000E+000	5,849943479984586E-004	5,849943479984586E-004	0,0000000E+000	0,0000000E+000	2,0000001E-002	0,000000000000000E+000	1,2629204E+000
1	1	0	0	0	0	1	1,748478106594212E+004	2,785680205219736E-005	6,407080226855145E-004	2,0000001E-002	1,3578058E+001	13	6,407080226855147E-004	0	1,2313254E+001	2,7233374E-004	8,699361903336945E-006	0,000000000000000E+000	7,528116299749126E+002	0,000000000000000E+000	2,005689772041484E-002	0,000000000000000E+000	6,407080226855147E-004	6,407080226855147E-004	0,0000000E+000	0,0000000E+000	2,0000001E-002	0,000000000000000E+000	1,2648039E+000
1	1	0	0	0	0	1	1,749478106582105E+004	2,785663416309075E-005	6,964215359758171E-004	2,0000001E-002	1,3578259E+001	13	6,964215359758174E-004	0	1,2312052E+001	2,7233610E-004	9,455808615648131E-006	0,000000000000000E+000	8,182197605091148E+002	0,000000000000000E+000	2,005677684025662E-002	0,000000000000000E+000	6,964215359758174E-004	6,964215359758174E-004	0,0000000E+000	0,0000000E+000	2,0000001E-002	0,000000000000000E+000	1,2662067E+000
1	1	0	0	0	0	1	1,750478106569998E+004	2,785684149474320E-005	7,521351846247498E-004	2,0000001E-002	1,3578379E+001	13	7,521351846247499E-004	0	1,2310808E+001	2,7234052E-004	1,021226051337269E-005	0,000000000000000E+000	8,836426010023072E+002	0,000000000000000E+000	2,005692611904819E-002	0,000000000000000E+000	7,521351846247499E-004	7,521351846247499E-004	0,0000000E+000	0,0000000E+000	2,0000001E-002	0,000000000000000E+000	1,2675705E+000
1	1	0	0	0	0	1	1,751478106557891E+004	2,785685179548131E-005	8,078491364923409E-004	2,0000001E-002	1,3576615E+001	13	8,078491364923410E-004	0	1,2307882E+001	2,7230527E-004	1,096868525934707E-005	0,000000000000000E+000	9,496443664387172E+002	0,000000000000000E+000	2,005693353557972E-002	0,000000000000000E+000	8,078491364923410E-004	8,078491364923410E-004	0,0000000E+000	0,0000000E+000	2,0000001E-002	0,000000000000000E+000	1,2687330E+000
1	1	0	0	0	0	1	1,752478106545784E+004	2,785661159952481E-005	8,635626255787081E-004	2,0000001E-002	1,3576976E+001	13	8,635626255787082E-004	0	1,2306599E+001	2,7231014E-004	1,172514391702624E-005	0,000000000000000E+000	1,015017314444702E+003	0,000000000000000E+000	2,005676059448895E-002	0,000000000000000E+000	8,635626255787082E-004	8,635626255787082E-004	0,0000000E+000	0,0000000E+000	2,0000001E-002	0,000000000000000E+000	1,2703772E+000
1	1	0	0	0	0	1	1,753478106533676E+004	2,785656559405227E-005	9,192756940276465E-004	2,0000001E-002	1,3578900E+001	13	9,192756940276467E-004	0	1,2307321E+001	2,7234832E-004	1,248161027917722E-005	0,000000000000000E+000	1,079823037547171E+003	0,000000000000000E+000	2,005672747054832E-002	0,000000000000000E+000	9,192756940276467E-004	9,192756940276467E-004	0,0000000E+000	0,0000000E+000	2,0000001E-002	0,000000000000000E+000	1,2715797E+000
1	1	0	0	0	0	1	1,754478106521569E+004	2,785667738473664E-005	9,749890544198247E-004	2,0000001E-002	1,3576534E+001	13	9,749890544198248E-004	0	1,2304153E+001	2,7230196E-004	1,323802696808442E-005	0,000000000000000E+000	1,146151341504565E+003	0,000000000000000E+000	2,005680795984203E-002	0,000000000000000E+000	9,749890544198248E-004	9,749890544198248E-004	0,0000000E+000	0,0000000E+000	2,0000001E-002	0,000000000000000E+000	1,2723808E+000
1	1	0	0	0	0	1	1,755478106509462E+004	2,785659149961753E-005	1,030702300858477E-003	2,0000001E-002	1,3578620E+001	13	1,030702300858477E-003	0	1,2304955E+001	2,7234294E-004	1,399451697322780E-005	0,000000000000000E+000	1,210820569841144E+003	0,000000000000000E+000	2,005674612255553E-002	0,000000000000000E+000	1,030702300858477E-003	1,030702300858477E-003	0,0000000E+000	0,0000000E+000	2,0000001E-002	0,000000000000000E+000	1,2736645E+000
1	1	0	0	0	0	1	1,756478106497355E+004	2,785643686892258E-005	1,086415399327460E-003	2,0000001E-002	1,3577296E+001	13	1,086415399327460E-003	0	1,2302791E+001	2,7231488E-004	1,475093682718158E-005	0,000000000000000E+000	1,276821219769786E+003	0,000000000000000E+000	2,005663478845381E-002	0,000000000000000E+000	1,086415399327460E-003	1,086415399327460E-003	0,0000000E+000	0,0000000E+000	2,0000001E-002	0,000000000000000E+000	1,2745056E+000
1	1	0	0	0	0	1	1,757478106485248E+004	2,785677246946014E-005	1,142129030422204E-003	2,0000001E-002	1,3577578E+001	13	1,142129030422204E-003	0	1,2302189E+001	2,7232381E-004	1,550741417620735E-005	0,000000000000000E+000	1,342175983911037E+003	0,000000000000000E+000	2,005687642084378E-002	0,000000000000000E+000	1,142129030422204E-003	1,142129030422204E-003	0,0000000E+000	0,0000000E+000	2,0000001E-002	0,000000000000000E+000	1,2753887E+000
1	1	0	0	0	0	1	1,758478106473140E+004	2,785599094287803E-005	1,197841448877731E-003	2,0000001E-002	1,3577978E+001	13	1,197841448877731E-003	0	1,2301748E+001	2,7232419E-004	1,626384044458192E-005	0,000000000000000E+000	1,407462555916823E+003	0,000000000000000E+000	2,005631372169785E-002	0,000000000000000E+000	1,197841448877731E-003	1,197841448877731E-003	0,0000000E+000	0,0000000E+000	2,0000001E-002	0,000000000000000E+000	1,2762299E+000
1	1	0	0	0	0	1	1,759478106461033E+004	2,785619594963888E-005	1,253553898980324E-003	2,0000001E-002	1,3577256E+001	13	1,253553898980323E-003	0	1,2300024E+001	2,7231174E-004	1,702024591685453E-005	0,000000000000000E+000	1,473271778807178E+003	0,000000000000000E+000	2,005646132656745E-002	0,000000000000000E+000	1,253553898980323E-003	1,253553898980323E-003	0,0000000E+000	0,0000000E+000	2,0000001E-002	0,000000000000000E+000	1,2772322E+000
1	1	0	0	0	0	1	1,760478106448926E+004	2,785597753535128E-005	1,309265873484210E-003	2,0000001E-002	1,3576454E+001	13	1,309265873484210E-003	0	1,2298741E+001	2,7229349E-004	1,777667508386972E-005	0,000000000000000E+000	1,539151732991998E+003	0,000000000000000E+000	2,005630406827848E-002	0,000000000000000E+000	1,309265873484210E-003	1,309265873484210E-003	0,0000000E+000	0,0000000E+000	2,0000001E-002	0,000000000000000E+000	1,2777128E+000
1	1	0	0	0	0	1	1,761478106436819E+004	2,785615946880231E-005	1,364977981919837E-003	2,0000001E-002	1,3578580E+001	13	1,364977981919837E-003	0	1,2299864E+001	2,7233793E-004	1,853315633148225E-005	0,000000000000000E+000	1,603532871749741E+003	0,000000000000000E+000	2,005643506036480E-002	0,000000000000000E+000	1,364977981919837E-003	1,364977981919837E-003	0,0000000E+000	0,0000000E+000	2,0000001E-002	0,000000000000000E+000	1,2787161E+000
1	1	0	0	0	0	1	1,762478106424712E+004	2,785623562056571E-005	1,420690174255313E-003	2,0000001E-002	1,3577096E+001	13	1,420690174255313E-003	0	1,2297699E+001	2,7230888E-004	1,928953707827583E-005	0,000000000000000E+000	1,669790366510753E+003	0,000000000000000E+000	2,005648988963512E-002	0,000000000000000E+000	1,420690174255313E-003	1,420690174255313E-003	0,0000000E+000	0,0000000E+000	2,0000001E-002	0,000000000000000E+000	1,2793970E+000
1	1	0	0	0	0	1	1,763478106412604E+004	2,785673000808391E-005	1,476403232458979E-003	2,0000001E-002	1,3576334E+001	13	1,476403232458979E-003	0	1,2295815E+001	2,7229844E-004	2,004596642720594E-005	0,000000000000000E+000	1,735703810185021E+003	0,000000000000000E+000	2,005684584865253E-002	0,000000000000000E+000	1,476403232458979E-003	1,476403232458979E-003	0,0000000E+000	0,0000000E+000	2,0000001E-002	0,000000000000000E+000	1,2805195E+000
1	1	0	0	0	0	1	1,764478106400497E+004	2,785651894648456E-005	1,532116599212194E-003	2,0000001E-002	1,3577978E+001	13	1,532116599212193E-003	0	1,2296777E+001	2,7232937E-004	2,080242565517505E-005	0,000000000000000E+000	1,800235537608197E+003	0,000000000000000E+000	2,005669388429916E-002	0,000000000000000E+000	1,532116599212193E-003	1,532116599212193E-003	0,0000000E+000	0,0000000E+000	2,0000001E-002	0,000000000000000E+000	1,2812014E+000
1	1	0	0	0	0	1	1,765478106388390E+004	2,785620820242912E-005	1,587829566254591E-003	2,0000001E-002	1,3575974E+001	13	1,587829566254591E-003	0	1,2294372E+001	2,7228610E-004	2,155877784102965E-005	0,000000000000000E+000	1,866919720507832E+003	0,000000000000000E+000	2,005647014857653E-002	0,000000000000000E+000	1,587829566254591E-003	1,587829566254591E-003	0,0000000E+000	0,0000000E+000	2,0000001E-002	0,000000000000000E+000	1,2816019E+000
1	1	0	0	0	0	1	1,766478106376283E+004	2,785730241870301E-005	1,643543693575077E-003	2,0000001E-002	1,3578018E+001	13	1,643543693575076E-003	0	1,2295214E+001	2,7233781E-004	2,231523065920330E-005	0,000000000000000E+000	1,931137020547198E+003	0,000000000000000E+000	2,005725798430327E-002	0,000000000000000E+000	1,643543693575076E-003	1,643543693575076E-003	0,0000000E+000	0,0000000E+000	2,0000001E-002	0,000000000000000E+000	1,2828045E+000
1	1	0	0	0	0	1	1,767478106364176E+004	2,785633662653466E-005	1,699256511444019E-003	2,0000001E-002	1,3577336E+001	13	1,699256511444019E-003	0	1,2294011E+001	2,7231470E-004	2,307167462432534E-005	0,000000000000000E+000	1,997043122414568E+003	0,000000000000000E+000	2,005656261393364E-002	0,000000000000000E+000	1,699256511444019E-003	1,699256511444019E-003	0,0000000E+000	0,0000000E+000	2,0000001E-002	0,000000000000000E+000	1,2833252E+000
1	1	0	0	0	0	1	1,768478106352068E+004	2,785719833295378E-005	1,754970582802883E-003	2,0000001E-002	1,3576494E+001	13	1,754970582802883E-003	0	1,2292527E+001	2,7230624E-004	2,382809203953035E-005	0,000000000000000E+000	2,063087978063383E+003	0,000000000000000E+000	2,005718304256292E-002	0,000000000000000E+000	1,754970582802883E-003	1,754970582802883E-003	0,0000000E+000	0,0000000E+000	2,0000001E-002	0,000000000000000E+000	1,2839670E+000
1	1	0	0	0	0	1	1,769478106339961E+004	2,785573473696907E-005	1,810682238540612E-003	2,0000001E-002	1,3576054E+001	13	1,810682238540612E-003	0	1,2291365E+001	2,7228307E-004	2,458444092805050E-005	0,000000000000000E+000	2,128887135771825E+003	0,000000000000000E+000	2,005612925344117E-002	0,000000000000000E+000	1,810682238540612E-003	1,810682238540612E-003	0,0000000E+000	0,0000000E+000	2,0000001E-002	0,000000000000000E+000	1,2846889E+000
1	1	0	0	0	0	1	1,770478106327854E+004	2,785613979295724E-005	1,866394243909460E-003	2,0000001E-002	1,3576816E+001	13	1,866394243909460E-003	0	1,2291525E+001	2,7230234E-004	2,534081021041602E-005	0,000000000000000E+000	2,193843874037202E+003	0,000000000000000E+000	2,005642089375618E-002	0,000000000000000E+000	1,866394243909460E-003	1,866394243909460E-003	0,0000000E+000	0,0000000E+000	2,0000001E-002	0,000000000000000E+000	1,2852907E+000
1	1	0	0	0	0	1	1,771478106315747E+004	2,785602286633932E-005	1,922106350063346E-003	2,0000001E-002	1,3578740E+001	13	1,922106350063346E-003	0	1,2292768E+001	2,7233979E-004	2,609730035303960E-005	0,000000000000000E+000	2,257911571093613E+003	0,000000000000000E+000	2,005633670659026E-002	0,000000000000000E+000	1,922106350063346E-003	1,922106350063346E-003	0,0000000E+000	0,0000000E+000	2,0000001E-002	0,000000000000000E+000	1,2859726E+000
1	1	0	0	0	0	1	1,772478106303640E+004	2,785629455828005E-005	1,977818735317638E-003	2,0000001E-002	1,3576896E+001	13	1,977818735317638E-003	0	1,2290362E+001	2,7230545E-004	2,685371947627904E-005	0,000000000000000E+000	2,324756433401423E+003	0,000000000000000E+000	2,005653232478995E-002	0,000000000000000E+000	1,977818735317638E-003	1,977818735317638E-003	0,0000000E+000	0,0000000E+000	2,0000001E-002	0,000000000000000E+000	1,2865334E+000
1	1	0	0	0	0	1	1,773478106291532E+004	2,785598546639085E-005	2,033530785638632E-003	2,0000001E-002	1,3576615E+001	13	2,033530785638632E-003	0	1,2289761E+001	2,7229681E-004	2,761010724746559E-005	0,000000000000000E+000	2,390460009583403E+003	0,000000000000000E+000	2,005630977862703E-002	0,000000000000000E+000	2,033530785638632E-003	2,033530785638632E-003	0,0000000E+000	0,0000000E+000	2,0000001E-002	0,000000000000000E+000	1,2868547E+000
1	1	0	0	0	0	1	1,774478106279425E+004	2,785599530467556E-005	2,089242926819457E-003	2,0000001E-002	1,3577978E+001	13	2,089242926819457E-003	0	1,2290082E+001	2,7232422E-004	2,836653979320273E-005	0,000000000000000E+000	2,454858439293004E+003	0,000000000000000E+000	2,005631686219211E-002	0,000000000000000E+000	2,089242926819457E-003	2,089242926819457E-003	0,0000000E+000	0,0000000E+000	2,0000001E-002	0,000000000000000E+000	1,2878962E+000
1	1	0	0	0	0	1	1,775478106267318E+004	2,785598410314156E-005	2,144954820560188E-003	2,0000001E-002	1,3577898E+001	13	2,144954820560189E-003	0	1,2289320E+001	2,7232253E-004	2,912299243672168E-005	0,000000000000000E+000	2,520385760504851E+003	0,000000000000000E+000	2,005630879708753E-002	0,000000000000000E+000	2,144954820560189E-003	2,144954820560189E-003	0,0000000E+000	0,0000000E+000	2,0000001E-002	0,000000000000000E+000	1,2885780E+000
1	1	0	0	0	0	1	1,776478106255211E+004	2,785606433088995E-005	2,200666969177003E-003	2,0000001E-002	1,3578740E+001	13	2,200666969177003E-003	0	1,2289842E+001	2,7234020E-004	2,987948204018143E-005	0,000000000000000E+000	2,585138649411626E+003	0,000000000000000E+000	2,005636656106707E-002	0,000000000000000E+000	2,200666969177003E-003	2,200666969177003E-003	0,0000000E+000	0,0000000E+000	2,0000001E-002	0,000000000000000E+000	1,2888985E+000
1	1	0	0	0	0	1	1,777478106243104E+004	2,785618064800898E-005	2,256379332333907E-003	2,0000001E-002	1,3578820E+001	13	2,256379332333907E-003	0	1,2289200E+001	2,7234294E-004	3,063598685671675E-005	0,000000000000000E+000	2,650515061630677E+003	0,000000000000000E+000	2,005645030939379E-002	0,000000000000000E+000	2,256379332333907E-003	2,256379332333907E-003	0,0000000E+000	0,0000000E+000	2,0000001E-002	0,000000000000000E+000	1,2896204E+000
1	1	0	0	0	0	1	1,778478106230996E+004	2,785608071430276E-005	2,312091456005246E-003	2,0000001E-002	1,3578339E+001	13	2,312091456005247E-003	0	1,2287957E+001	2,7233228E-004	3,139247054267534E-005	0,000000000000000E+000	2,716385639284107E+003	0,000000000000000E+000	2,005637835712444E-002	0,000000000000000E+000	2,312091456005247E-003	2,312091456005247E-003	0,0000000E+000	0,0000000E+000	2,0000001E-002	0,000000000000000E+000	1,2903814E+000
1	1	0	0	0	0	1	1,779478106218889E+004	2,785589367482397E-005	2,367803439401918E-003	2,0000001E-002	1,3577538E+001	13	2,367803439401918E-003	0	1,2286915E+001	2,7231441E-004	3,214890208848326E-005	0,000000000000000E+000	2,782566924834825E+003	0,000000000000000E+000	2,005624368869808E-002	0,000000000000000E+000	2,367803439401918E-003	2,367803439401918E-003	0,0000000E+000	0,0000000E+000	2,0000001E-002	0,000000000000000E+000	1,2906227E+000
1	1	0	0	0	0	1	1,780478106206782E+004	2,785568162643661E-005	2,423515091831072E-003	2,0000001E-002	1,3577818E+001	13	2,423515091831072E-003	0	1,2286433E+001	2,7231796E-004	3,290533583499823E-005	0,000000000000000E+000	2,847776832308954E+003	0,000000000000000E+000	2,005609101385733E-002	0,000000000000000E+000	2,423515091831072E-003	2,423515091831072E-003	0,0000000E+000	0,0000000E+000	2,0000001E-002	0,000000000000000E+000	1,2913847E+000
1	1	0	0	0	0	1	1,781478106194675E+004	2,785590907227662E-005	2,479226660507214E-003	2,0000001E-002	1,3577376E+001	13	2,479226660507214E-003	0	1,2285351E+001	2,7231133E-004	3,366175165509608E-005	0,000000000000000E+000	2,913661226440863E+003	0,000000000000000E+000	2,005625477486412E-002	0,000000000000000E+000	2,479226660507214E-003	2,479226660507214E-003	0,0000000E+000	0,0000000E+000	2,0000001E-002	0,000000000000000E+000	1,2920256E+000
1	1	0	0	0	0	1	1,782478106182568E+004	2,785622024950054E-005	2,534938985312461E-003	2,0000001E-002	1,3578339E+001	13	2,534938985312461E-003	0	1,2286153E+001	2,7233365E-004	3,441821349890375E-005	0,000000000000000E+000	2,978200467926719E+003	0,000000000000000E+000	2,005647882246806E-002	0,000000000000000E+000	2,534938985312461E-003	2,534938985312461E-003	0,0000000E+000	0,0000000E+000	2,0000001E-002	0,000000000000000E+000	1,2921858E+000
1	1	0	0	0	0	1	1,783478106170461E+004	2,785607679157207E-005	2,590651292492429E-003	2,0000001E-002	1,3578820E+001	13	2,590651292492429E-003	0	1,2285872E+001	2,7234192E-004	3,517472201838217E-005	0,000000000000000E+000	3,043176371892076E+003	0,000000000000000E+000	2,005637553275831E-002	0,000000000000000E+000	2,590651292492429E-003	2,590651292492429E-003	0,0000000E+000	0,0000000E+000	2,0000001E-002	0,000000000000000E+000	1,2929478E+000
1	1	0	0	0	0	1	1,784478106158353E+004	2,785630144861837E-005	2,646363658434194E-003	2,0000001E-002	1,3579221E+001	13	2,646363658434194E-003	0	1,2285552E+001	2,7235213E-004	3,593125365097989E-005	0,000000000000000E+000	3,108214127545504E+003	0,000000000000000E+000	2,005653728583361E-002	0,000000000000000E+000	2,646363658434194E-003	2,646363658434194E-003	0,0000000E+000	0,0000000E+000	2,0000001E-002	0,000000000000000E+000	1,2936687E+000
1	1	0	0	0	0	1	1,785478106146246E+004	2,785674654899372E-005	2,702077067312267E-003	2,0000001E-002	1,3578138E+001	13	2,702077067312268E-003	0	1,2283828E+001	2,7233482E-004	3,668775478801846E-005	0,000000000000000E+000	3,174771949133459E+003	0,000000000000000E+000	2,005685775810774E-002	0,000000000000000E+000	2,702077067312268E-003	2,702077067312268E-003	0,0000000E+000	0,0000000E+000	2,0000001E-002	0,000000000000000E+000	1,2943106E+000
1	1	0	0	0	0	1	1,786478106134139E+004	2,785693291212535E-005	2,757790956052227E-003	2,0000001E-002	1,3577016E+001	13	2,757790956052227E-003	0	1,2282264E+001	2,7231412E-004	3,744420436660168E-005	0,000000000000000E+000	3,241419766002143E+003	0,000000000000000E+000	2,005699193956414E-002	0,000000000000000E+000	2,757790956052227E-003	2,757790956052227E-003	0,0000000E+000	0,0000000E+000	2,0000001E-002	0,000000000000000E+000	1,2947521E+000
1	1	0	0	0	0	1	1,787478106122032E+004	2,785693598590377E-005	2,813504982012428E-003	2,0000001E-002	1,3579542E+001	13	2,813504982012428E-003	0	1,2283948E+001	2,7236479E-004	3,820076637809221E-005	0,000000000000000E+000	3,304178942814375E+003	0,000000000000000E+000	2,005699415268462E-002	0,000000000000000E+000	2,813504982012428E-003	2,813504982012428E-003	0,0000000E+000	0,0000000E+000	2,0000001E-002	0,000000000000000E+000	1,2955942E+000
1	1	0	0	0	0	1	1,788478106109925E+004	2,785695922509250E-005	2,869218749585561E-003	2,0000001E-002	1,3577216E+001	13	2,869218749585562E-003	0	1,2281623E+001	2,7231837E-004	3,895722323779376E-005	0,000000000000000E+000	3,372167954425050E+003	0,000000000000000E+000	2,005701088490071E-002	0,000000000000000E+000	2,869218749585562E-003	2,869218749585562E-003	0,0000000E+000	0,0000000E+000	2,0000001E-002	0,000000000000000E+000	1,2955933E+000
1	1	0	0	0	0	1	1,789478106097817E+004	2,785681014777058E-005	2,924932539469563E-003	2,0000001E-002	1,3579101E+001	13	2,924932539469563E-003	0	1,2282785E+001	2,7235472E-004	3,971375077483376E-005	0,000000000000000E+000	3,435534281760502E+003	0,000000000000000E+000	2,005690354922763E-002	0,000000000000000E+000	2,924932539469563E-003	2,924932539469563E-003	0,0000000E+000	0,0000000E+000	2,0000001E-002	0,000000000000000E+000	1,2963152E+000
1	1	0	0	0	0	1	1,790478106085710E+004	2,785744053477215E-005	2,980647080759828E-003	2,0000001E-002	1,3577497E+001	13	2,980647080759829E-003	0	1,2280661E+001	2,7232873E-004	4,047022374530794E-005	0,000000000000000E+000	3,502806984863239E+003	0,000000000000000E+000	2,005735742787425E-002	0,000000000000000E+000	2,980647080759829E-003	2,980647080759829E-003	0,0000000E+000	0,0000000E+000	2,0000001E-002	0,000000000000000E+000	1,2968369E+000
1	1	0	0	0	0	1	1,791478106073603E+004	2,785719652794715E-005	3,036361438835040E-003	2,0000001E-002	1,3579301E+001	13	3,036361438835040E-003	0	1,2282144E+001	2,7236249E-004	4,122674335001616E-005	0,000000000000000E+000	3,566182158921214E+003	0,000000000000000E+000	2,005718174295813E-002	0,000000000000000E+000	3,036361438835040E-003	3,036361438835040E-003	0,0000000E+000	0,0000000E+000	2,0000001E-002	0,000000000000000E+000	1,2971573E+000
1	1	0	0	0	0	1	1,792478106061496E+004	2,785770553422885E-005	3,092076396639666E-003	2,0000001E-002	1,3578178E+001	13	3,092076396639666E-003	0	1,2280500E+001	2,7234497E-004	4,198326886637692E-005	0,000000000000000E+000	3,632949333744867E+003	0,000000000000000E+000	2,005754822748539E-002	0,000000000000000E+000	3,092076396639666E-003	3,092076396639666E-003	0,0000000E+000	0,0000000E+000	2,0000001E-002	0,000000000000000E+000	1,2976780E+000
1	1	0	0	0	0	1	1,793478106049389E+004	2,785787047538906E-005	3,147792092807177E-003	2,0000001E-002	1,3578820E+001	13	3,147792092807178E-003	0	1,2280500E+001	2,7235947E-004	4,273977760235895E-005	0,000000000000000E+000	3,697636400630135E+003	0,000000000000000E+000	2,005766698512218E-002	0,000000000000000E+000	3,147792092807178E-003	3,147792092807178E-003	0,0000000E+000	0,0000000E+000	2,0000001E-002	0,000000000000000E+000	1,2983198E+000
1	1	0	0	0	0	1	1,794478106037281E+004	2,785781903627018E-005	3,203507893247323E-003	2,0000001E-002	1,3577858E+001	13	3,203507893247324E-003	0	1,2279538E+001	2,7233965E-004	4,349632462975541E-005	0,000000000000000E+000	3,764266342191117E+003	0,000000000000000E+000	2,005762994895614E-002	0,000000000000000E+000	3,203507893247324E-003	3,203507893247324E-003	0,0000000E+000	0,0000000E+000	2,0000001E-002	0,000000000000000E+000	1,2983198E+000
1	1	0	0	0	0	1	1,795478106025174E+004	2,785734188908504E-005	3,259222606465117E-003	2,0000001E-002	1,3576936E+001	13	3,259222606465118E-003	0	1,2278094E+001	2,7231651E-004	4,425276863891786E-005	0,000000000000000E+000	3,830886773584854E+003	0,000000000000000E+000	2,005728640297868E-002	0,000000000000000E+000	3,259222606465118E-003	3,259222606465118E-003	0,0000000E+000	0,0000000E+000	2,0000001E-002	0,000000000000000E+000	1,2988415E+000
1	1	0	0	0	0	1	1,796478106013067E+004	2,785842758686178E-005	3,314939162777944E-003	2,0000001E-002	1,3579382E+001	13	3,314939162777945E-003	0	1,2279578E+001	2,7237617E-004	4,500934046261118E-005	0,000000000000000E+000	3,893266498672136E+003	0,000000000000000E+000	2,005806810538740E-002	0,000000000000000E+000	3,314939162777945E-003	3,314939162777945E-003	0,0000000E+000	0,0000000E+000	2,0000001E-002	0,000000000000000E+000	1,2998037E+000
1	1	0	0	0	0	1	1,796759806009656E+004	1,114025091131528E-009	3,330634030086092E-003	2,0000001E-002	1,3577456E+001	13	3,330634030086093E-003	0	1,2277493E+001	2,7226130E-004	4,522243495454963E-005	0,000000000000000E+000	3,914158237046879E+003	0,000000000000000E+000	2,005245214693506E-002	0,000000000000000E+000	3,330634030086093E-003	3,330634030086093E-003	0,0000000E+000	0,0000000E+000	2,0000001E-002	0,000000000000000E+000	1,2999630E+000
2	1	0	1	0	0	1	1,808759925864369E+004	6,330881785882844E-004	3,963728783334709E-003	1,3000113E+000	1,3578540E+001	13	3,963728783334710E-003	0	1,2281983E+001	2,5789239E-004	5,381893014346317E-005	0,000000000000000E+000	4,656523812890475E+003	0,000000000000000E+000	1,899264558759617E-002	0,000000000000000E+000	3,963728783334710E-003	3,963728783334710E-003	0,0000000E+000	1,3000113E+000	0,0000000E+000	0,000000000000000E+000	1,2965565E+000
2	1	0	1	0	0	1	1,832759925573797E+004	5,869919766884090E-004	5,159689615397508E-003	1,3000113E+000	1,3577978E+001	13	5,159689615397508E-003	0	1,2281383E+001	2,3910493E-004	7,005731810408140E-005	0,000000000000000E+000	6,062630359492709E+003	0,000000000000000E+000	1,760975951385704E-002	0,000000000000000E+000	5,159689615397508E-003	5,159689615397508E-003	0,0000000E+000	1,3000113E+000	0,0000000E+000	0,000000000000000E+000	1,2965956E+000
2	1	0	1	0	0	1	1,856759925283224E+004	5,483854046334616E-004	6,275139755434564E-003	1,3000113E+000	1,3578780E+001	13	6,275139755434565E-003	0	1,2282224E+001	2,2339214E-004	8,520301972742440E-005	0,000000000000000E+000	7,371353557303028E+003	0,000000000000000E+000	1,645156233818610E-002	0,000000000000000E+000	6,275139755434565E-003	6,275139755434565E-003	0,0000000E+000	1,3000113E+000	0,0000000E+000	0,000000000000000E+000	1,2965565E+000
2	1	0	1	0	0	1	1,880759924992651E+004	5,153429710292775E-004	7,321750445479837E-003	1,3000113E+000	1,3577296E+001	13	7,321750445479838E-003	0	1,2280540E+001	2,0990892E-004	9,941397276882547E-005	0,000000000000000E+000	8,604964860066166E+003	0,000000000000000E+000	1,546028931805904E-002	0,000000000000000E+000	7,321750445479838E-003	7,321750445479838E-003	0,0000000E+000	1,3000113E+000	0,0000000E+000	0,000000000000000E+000	1,2967558E+000
2	1	0	1	0	0	1	1,904759924702079E+004	4,868128114986337E-004	8,309090047475933E-003	1,3000113E+000	1,3577256E+001	13	8,309090047475935E-003	0	1,2280460E+001	1,9828747E-004	1,128199780032234E-004	0,000000000000000E+000	9,765473893441289E+003	0,000000000000000E+000	1,460438452177712E-002	0,000000000000000E+000	8,309090047475935E-003	8,309090047475935E-003	0,0000000E+000	1,3000113E+000	0,0000000E+000	0,000000000000000E+000	1,2967958E+000
2	1	0	1	0	0	1	1,928759924411506E+004	4,617697423047179E-004	9,244792574457048E-003	1,3000113E+000	1,3578419E+001	13	9,244792574457050E-003	0	1,2281463E+001	1,8810309E-004	1,255253197398168E-004	0,000000000000000E+000	1,086106054041316E+004	0,000000000000000E+000	1,385309243686361E-002	0,000000000000000E+000	9,244792574457050E-003	9,244792574457050E-003	0,0000000E+000	1,3000113E+000	0,0000000E+000	0,000000000000000E+000	1,2969561E+000
2	1	0	1	0	0	1	1,952759924120933E+004	4,395050179596680E-004	1,013460457523462E-002	1,3000113E+000	1,3577456E+001	13	1,013460457523462E-002	0	1,2280581E+001	1,7902082E-004	1,376065771935039E-004	0,000000000000000E+000	1,191017854829947E+004	0,000000000000000E+000	1,318515069842521E-002	0,000000000000000E+000	1,013460457523462E-002	1,013460457523462E-002	0,0000000E+000	1,3000113E+000	0,0000000E+000	0,000000000000000E+000	1,2968760E+000
2	1	0	1	0	0	1	1,976759923830361E+004	4,189642531813847E-004	1,098256960653033E-002	1,3000113E+000	1,3576334E+001	13	1,098256960653033E-002	0	1,2279538E+001	1,7063995E-004	1,491190402875313E-004	0,000000000000000E+000	1,291143739906878E+004	0,000000000000000E+000	1,256892774761598E-002	0,000000000000000E+000	1,098256960653033E-002	1,098256960653033E-002	0,0000000E+000	1,3000113E+000	0,0000000E+000	0,000000000000000E+000	1,2967958E+000
2	1	0	1	0	0	1	2,000759923539788E+004	4,004537482074358E-004	1,179251632652447E-002	1,3000113E+000	1,3578980E+001	13	1,179251632652447E-002	0	1,2282023E+001	1,6313260E-004	1,601163060616925E-004	0,000000000000000E+000	1,385166391965622E+004	0,000000000000000E+000	1,201361259167421E-002	0,000000000000000E+000	1,179251632652447E-002	1,179251632652447E-002	0,0000000E+000	1,3000113E+000	0,0000000E+000	0,000000000000000E+000	1,2969570E+000
2	1	0	1	0	0	1	2,024759923249215E+004	3,837215670389641E-004	1,256810876380419E-002	1,3000113E+000	1,3577336E+001	13	1,256810876380420E-002	0	1,2280781E+001	1,5629751E-004	1,706470683270799E-004	0,000000000000000E+000	1,477060996940620E+004	0,000000000000000E+000	1,151164715054266E-002	0,000000000000000E+000	1,256810876380420E-002	1,256810876380420E-002	0,0000000E+000	1,3000113E+000	0,0000000E+000	0,000000000000000E+000	1,2965555E+000
2	1	0	1	0	0	1	2,048759922958643E+004	3,684584595205573E-004	1,331253154432613E-002	1,3000113E+000	1,3576534E+001	13	1,331253154432613E-002	0	1,2279819E+001	1,5007168E-004	1,807539307856239E-004	0,000000000000000E+000	1,564958685349626E+004	0,000000000000000E+000	1,105375391944666E-002	0,000000000000000E+000	1,331253154432613E-002	1,331253154432613E-002	0,0000000E+000	1,3000113E+000	0,0000000E+000	0,000000000000000E+000	1,2967157E+000
2	1	0	1	0	0	1	2,072759922668070E+004	3,543227115950237E-004	1,402814324766351E-002	1,3000113E+000	1,3576655E+001	13	1,402814324766351E-002	0	1,2279819E+001	1,4431553E-004	1,904696455716657E-004	0,000000000000000E+000	1,649017418090865E+004	0,000000000000000E+000	1,062968147654632E-002	0,000000000000000E+000	1,402814324766351E-002	1,402814324766351E-002	0,0000000E+000	1,3000113E+000	0,0000000E+000	0,000000000000000E+000	1,2968369E+000
2	1	0	1	0	0	1	2,096759922377497E+004	3,410873935326106E-004	1,471681560766749E-002	1,3000113E+000	1,3577658E+001	13	1,471681560538342E-002	0	1,2280781E+001	1,3893504E-004	1,998197290914728E-004	0,000000000000000E+000	1,729405296936950E+004	0,000000000000000E+000	1,023262192986665E-002	0,000000000000000E+000	1,471681560538342E-002	1,471681560538342E-002	0,0000000E+000	1,3000113E+000	0,0000000E+000	0,000000000000000E+000	1,2968769E+000
2	1	0	1	0	0	1	2,105479922271922E+004	5,548291115297211E-010	1,496071434894897E-002	1,3000113E+000	1,3575532E+001	13	1,496071434304641E-002	0	1,2278456E+001	1,3557781E-004	2,031307841995066E-004	0,000000000000000E+000	1,759287124456939E+004	0,000000000000000E+000	9,986924259825909E-003	0,000000000000000E+000	1,496071434304641E-002	1,496071434304641E-002	0,0000000E+000	1,3000113E+000	0,0000000E+000	0,000000000000000E+000	1,2970762E+000
3	1	0	0	0	0	1	2,111474982199338E+004	0,000000000000000E+000	1,496071546140189E-002	0,0000000E+000	1,4815627E+001	14	1,496071434304641E-002	0	1,3574943E+001	0,0000000E+000	2,031307841995066E-004	0,000000000000000E+000	1,759287124456939E+004	0,000000000000000E+000	0,000000000000000E+000	0,000000000000000E+000	1,496071434304641E-002	1,496071434304641E-002	0,0000000E+000	0,0000000E+000	0,0000000E+000	0,000000000000000E+000	1,2406845E+000
3	1	0	0	0	0	1	2,111479942199279E+004	0,000000000000000E+000	1,496071546140189E-002	0,0000000E+000	1,4815627E+001	14	1,496071434304641E-002	0	1,3575144E+001	0,0000000E+000	2,031307841995066E-004	0,000000000000000E+000	1,759287124456939E+004	0,000000000000000E+000	0,000000000000000E+000	0,000000000000000E+000	1,496071434304641E-002	1,496071434304641E-002	0,0000000E+000	0,0000000E+000	0,0000000E+000	0,000000000000000E+000	1,2404833E+000