File: SAMPLE-MPT/20220309_SSB_Cell_03_Form01/20220309_(Form02C)EIS_charging_10bis16V_step_01V+(1C+EIS)50cycle_13_GEIS_C08.mpt
EC-Lab ASCII FILE
Nb header lines : 72

Galvano Electrochemical Impedance Spectroscopy

Run on channel : 8 (SN 14384)
User :
CE vs. WE compliance from -10 V to 10 V
Electrode connection : standard
Potential control : Ewe-Ece
Ewe ctrl range : min = 0,00 V, max = 5,00 V
Safety Limits :
	Do not start on E overload
Acquisition started on : 03/09/2022 13:55:05.456
Technique started on : 03/09/2022 22:29:09.601
Loaded Setting File :  C:\DATA\x_Data_VMP3\Extern\InES\Binbin\001_Testing_Profiles\20220308_(Form02C)EIS_charging_10bis16V_step_01V+(1C+EIS)50cycle.mps
Saved on :
	File : 20220309_(Form02C)EIS_charging_10bis16V_step_01V+(1C+EIS)50cycle_13_GEIS_C08.mpr
	Directory : C:\DATA\x_Data_VMP3\Extern\InES\Binbin\20220309_SSB_Cell_03_Form01\
	Host : 134.169.45.143
Device : VMP3 (SN 0787)
Address : 134.169.45.150
EC-Lab for windows v11.42 (software)
Internet server v11.40 (firmware)
Command interpretor v11.40 (firmware)
Electrode material :
Initial state :
Electrolyte :
Comments :
Electrode surface area : 0,000 cm²
Characteristic mass : 0,001 g
Equivalent Weight : 0,000 g/eq.
Density : 0,000 g/cm3
Volume (V) : 0,001 cm³
Record Ece
Record Power
Cycle Definition : Charge/Discharge alternance
Mode                Single sine
Is                  0,000
unit Is             µA
vs.                 <None>
tIs (h:m:s)         0:00:0,0000
record              0
dE (mV)             0,000
dt (s)              0,000
fi                  1,000
unit fi             MHz
ff                  5,000
unit ff             mHz
Nd                  6
Points              per decade
spacing             Logarithmic
Ia/Va               Ia
Ia                  5,000
unit  Ia            µA
va pourcent         0,10
pw                  0,10
Na                  2
corr                0
E range min (V)     0,000
E range max (V)     5,000
I Range             10 µA
Bandwidth           5
nc cycles           0
goto Ns'            0
nr cycles           0
inc. cycle          0

Number of loops : 1
Loop 0 from point number 0 to 49

freq/Hz	Re(Z)/Ohm	-Im(Z)/Ohm	|Z|/Ohm	Phase(Z)/deg	time/s	<Ewe>/V	<I>/mA	Cs/µF	Cp/µF	cycle number	|Ewe|/V	|I|/A	Ns	I Range	(Q-Qo)/mA.h	<Ece>/V	|Ece|/V	Phase(Zce)/deg	|Zce|/Ohm	Re(Zce)/Ohm	-Im(Zce)/Ohm	Phase(Zwe-ce)/deg	|Zwe-ce|/Ohm	Re(Zwe-ce)/Ohm	-Im(Zwe-ce)/Ohm	P/W	Re(Y)/Ohm-1	Im(Y)/Ohm-1	|Y|/Ohm-1	Phase(Y)/deg	dq/mA.h
1,0000186E+006	-2,9358492E+001	4,6484180E+001	5,4979088E+001	-1,2227570E+002	3,084414466133702E+004	1,3576645E+001	1,7306085E-005	3,4237881E-003	2,4474971E-003	1,000000000000000E+000	2,8948166E-004	5,2653049E-006	0	14	8,099560892023622E-010	1,2089965E+001	2,6071604E-004	8,7465111E+001	4,9515850E+001	2,1899765E+000	-4,9467396E+001	1,7373380E+002	2,7331810E+001	-2,7168516E+001	-2,9832153E+000	0,0000000E+000	-9,7126700E-003	1,5378363E-002	1,8188734E-002	1,2227570E+002	8,099560892023622E-010
6,7700600E+005	-1,6881378E+001	3,4755863E+001	3,8638725E+001	-1,1590646E+002	3,084452966135531E+004	1,3576626E+001	1,3647652E-005	6,7639370E-003	5,4728067E-003	1,000000000000000E+000	2,1155211E-004	5,4751317E-006	0	14	3,828134503970817E-009	1,2088533E+001	2,8550095E-004	5,1279495E+001	5,2145039E+001	3,2617863E+001	-4,0683903E+001	2,0641729E+001	1,6816023E+001	1,5736485E+001	-5,9280396E+000	0,0000000E+000	-1,1307390E-002	2,3279974E-002	2,5880771E-002	1,1590646E+002	3,018178414768455E-009
4,5833025E+005	-1,8007925E+000	3,8393909E+001	3,8436119E+001	-9,2685379E+001	3,084491466137359E+004	1,3576621E+001	1,8638808E-005	9,0443892E-003	9,0245353E-003	1,000000000000000E+000	2,0413194E-004	5,3109402E-006	0	14	4,873485029924672E-009	1,2089602E+001	1,8887031E-004	2,1566364E+001	3,5562500E+001	3,3072857E+001	-1,3072017E+001	-3,8998089E+001	4,0238541E+001	3,1272064E+001	2,5321892E+001	0,0000000E+000	-1,2189458E-003	2,5988623E-002	2,6017195E-002	9,2685379E+001	1,045350525953855E-009
3,1029172E+005	1,4863337E+001	3,6136051E+001	3,9073429E+001	-6,7641853E+001	3,084529966139188E+004	1,3576698E+001	1,3327530E-005	1,4194145E-002	1,2140249E-002	1,000000000000000E+000	1,9040318E-004	4,8729580E-006	0	14	6,190950174590802E-009	1,2088839E+001	1,0871479E-004	-9,1322536E+000	2,2309814E+001	2,2027029E+001	3,5408773E+000	-4,7084282E+001	5,4177097E+001	3,6890366E+001	3,9676929E+001	0,0000000E+000	9,7353859E-003	2,3668876E-002	2,5592839E-002	6,7641853E+001	1,317465144666130E-009
2,1007459E+005	2,8987606E+001	1,1398804E+001	3,1148258E+001	-2,1466253E+001	3,084568466141017E+004	1,3576571E+001	1,4028447E-005	6,6464134E-002	8,9009907E-003	1,000000000000000E+000	1,4985609E-004	4,8110583E-006	0	14	5,783317204066663E-009	1,2090098E+001	9,9633799E-005	-4,2219845E+001	2,0709332E+001	1,5336749E+001	1,3916197E+001	-2,9732014E+001	5,1044079E+001	4,4324356E+001	2,5315001E+001	0,0000000E+000	2,9877540E-002	1,1748753E-002	3,2104526E-002	2,1466253E+001	-4,076329705241392E-010
1,4222091E+005	1,7324795E+001	-4,2349997E+000	1,7834902E+001	1,3736423E+001	3,084593866142223E+004	1,3576569E+001	1,7407741E-005	-2,6424289E-001	-1,4899394E-002	1,000000000000000E+000	8,7049521E-005	4,8808524E-006	0	14	1,219423806558832E-008	1,2088858E+001	1,5290570E-004	-5,0045250E+001	3,1327663E+001	2,0118074E+001	2,4014278E+001	-2,7845350E+001	4,2346054E+001	3,7442871E+001	1,9779278E+001	0,0000000E+000	5,4466147E-002	-1,3314104E-002	5,6069836E-002	-1,3736423E+001	6,410920861521656E-009
9,6283031E+004	8,8397493E+000	-8,9830666E+000	1,2603042E+001	4,5460716E+001	3,084619266143430E+004	1,3576571E+001	1,5990321E-005	-1,8401183E-001	-9,3485497E-002	1,000000000000000E+000	6,0581235E-005	4,8068741E-006	0	14	1,243604211140337E-008	1,2088991E+001	1,7904524E-004	-3,8945457E+001	3,7247749E+001	2,8969238E+001	2,3413202E+001	-2,0889799E+001	4,0469105E+001	3,7808987E+001	1,4430136E+001	0,0000000E+000	5,5653084E-002	-5,6555375E-002	7,9345927E-002	-4,5460716E+001	2,418040458150495E-010
6,5181484E+004	6,1380115E+000	-7,4457312E+000	9,6495647E+000	5,0498974E+001	3,084657766145258E+004	1,3576568E+001	1,5228238E-005	-3,2793558E-001	-1,9524854E-001	1,000000000000000E+000	4,6838173E-005	4,8539155E-006	0	14	1,686534200441909E-008	1,2089239E+001	2,0320484E-004	-3,4638901E+001	4,1864105E+001	3,4443718E+001	2,3795662E+001	-2,1943960E+001	4,3751537E+001	4,0581730E+001	1,6349930E+001	0,0000000E+000	6,5919243E-002	-7,9963520E-002	1,0363162E-001	-5,0498974E+001	4,429299893015721E-009
4,4128563E+004	-3,7633023E-001	-4,4285188E+000	4,4444799E+000	9,4857254E+001	3,084696266147087E+004	1,3576482E+001	1,3938094E-005	-8,1440765E-001	-8,0856872E-001	1,000000000000000E+000	2,1319289E-005	4,7968015E-006	0	14	1,466731704107992E-008	1,2088820E+001	2,2845967E-004	-2,8252760E+001	4,7627502E+001	4,1953541E+001	2,2545055E+001	-2,3544317E+001	4,5352764E+001	4,1577209E+001	1,8116537E+001	0,0000000E+000	-1,9051401E-002	-2,2419018E-001	2,2499821E-001	-9,4857254E+001	-2,198024963339171E-009
2,9876783E+004	3,7235398E+000	-1,5773958E+000	4,0438752E+000	2,2958878E+001	3,084734766148916E+004	1,3576521E+001	1,7307309E-005	-3,3771136E+000	-5,1384425E-001	1,000000000000000E+000	1,9158169E-005	4,7375770E-006	0	14	1,231588753648793E-008	1,2089220E+001	2,4596899E-004	-2,3857626E+001	5,1918732E+001	4,7482449E+001	2,0999327E+001	-2,0771246E+001	5,4765545E+001	5,1205990E+001	1,9421930E+001	0,0000000E+000	2,2769868E-001	-9,6459545E-002	2,4728756E-001	-2,2958878E+001	-2,351429504591984E-009
2,0227139E+004	2,2651470E+000	-5,8342338E-001	2,3390753E+000	1,4443477E+001	3,084773266150744E+004	1,3576525E+001	1,5541344E-005	-1,3486581E+001	-8,3903694E-001	1,000000000000000E+000	1,1013267E-005	4,7083849E-006	0	14	1,156411705702946E-008	1,2089067E+001	2,6035064E-004	-2,4367580E+001	5,5295105E+001	5,0369267E+001	2,2814157E+001	-2,2897308E+001	5,7136566E+001	5,2634415E+001	2,2230734E+001	0,0000000E+000	4,1400725E-001	-1,0663392E-001	4,2751935E-001	-1,4443477E+001	-7,517704794584753E-010
1,3695073E+004	9,5530999E-001	-3,9118128E+000	4,0267725E+000	7,6276321E+001	3,084811766152573E+004	1,3576494E+001	1,3709322E-005	-2,9708295E+000	-2,8036232E+000	1,000000000000000E+000	1,9011733E-005	4,7213330E-006	0	14	2,085264207130422E-008	1,2088896E+001	2,9422401E-004	-1,9041059E+001	6,2317997E+001	5,8908268E+001	2,0330976E+001	-1,5337696E+001	6,2074448E+001	5,9863579E+001	1,6419163E+001	0,0000000E+000	5,8915582E-002	-2,4124809E-001	2,4833785E-001	-7,6276321E+001	9,288525014274757E-009
9,2692256E+003	-1,1366040E+000	-2,1264565E+000	2,4111586E+000	1,1812477E+002	3,084850266154401E+004	1,3576477E+001	1,8635512E-005	-8,0745840E+000	-6,2803183E+000	1,000000000000000E+000	1,1451792E-005	4,7494977E-006	0	14	1,856764702258968E-008	1,2089106E+001	3,2972801E-004	-1,9486383E+001	6,9423759E+001	6,5447220E+001	2,3158573E+001	-1,8109793E+001	6,7662437E+001	6,4310616E+001	2,1032116E+001	0,0000000E+000	-1,9550486E-001	-3,6576739E-001	4,1473839E-001	-1,1812477E+002	-2,284995048714538E-009
6,2722681E+003	2,6334927E+000	5,7567000E-001	2,6956780E+000	-1,2330647E+001	3,084888766156230E+004	1,3576297E+001	1,3465998E-005	4,4078003E+001	2,0101714E+000	1,000000000000000E+000	1,2953082E-005	4,8051293E-006	0	14	1,651944220298497E-008	1,2088781E+001	3,6578660E-004	-1,9980925E+001	7,6124199E+001	7,1542015E+001	2,6012192E+001	-1,9719980E+001	7,8796700E+001	7,4175507E+001	2,6587862E+001	0,0000000E+000	3,6240661E-001	7,9220504E-002	3,7096420E-001	1,2330647E+001	-2,048204819604709E-009
4,2448467E+003	1,3112742E+000	-2,2439156E-001	1,3303351E+000	9,7106714E+000	3,084931366158254E+004	1,3576267E+001	1,1226821E-005	-1,6709044E+002	-4,7538176E+000	1,000000000000000E+000	6,4746187E-006	4,8669081E-006	0	14	1,881767413240393E-008	1,2089602E+001	3,9978194E-004	-1,8140530E+001	8,2142899E+001	7,8060043E+001	2,5575087E+001	-1,7713152E+001	8,3321449E+001	7,9371315E+001	2,5350695E+001	0,0000000E+000	7,4092013E-001	-1,2678982E-001	7,5169027E-001	-9,7106714E+000	2,298231929418964E-009
2,8779956E+003	1,1315053E+000	-8,6870715E-002	1,1348351E+000	4,3902407E+000	3,084971466160158E+004	1,3576260E+001	7,6053170E-006	-6,3658527E+002	-3,7302492E+000	1,000000000000000E+000	5,2155719E-006	4,5958850E-006	0	14	2,466756733811811E-008	1,2090098E+001	3,9866005E-004	-1,3649445E+001	8,6742828E+001	8,4293015E+001	2,0469643E+001	-1,3420169E+001	8,7822586E+001	8,5424522E+001	2,0382772E+001	0,0000000E+000	8,7859970E-001	-6,7454025E-002	8,8118529E-001	-4,3902407E+000	5,849893205714175E-009
1,9481171E+003	-2,4598334E+000	2,2271387E-001	2,4698951E+000	-1,7482654E+002	3,085039066163369E+004	1,3576249E+001	6,8204863E-006	3,6682404E+002	2,9826021E+000	1,000000000000000E+000	1,2090642E-005	4,8952047E-006	0	14	2,271105982979154E-008	1,2088457E+001	4,5997932E-004	-1,4191379E+001	9,3965286E+001	9,1097679E+001	2,3036671E+001	-1,4703435E+001	9,1638786E+001	8,8637848E+001	2,3259384E+001	0,0000000E+000	-4,0322614E-001	3,6508150E-002	4,0487549E-001	1,7482654E+002	-1,956507508326568E-009
1,3187339E+003	2,5831161E+000	-8,3634758E-001	2,7151365E+000	1,7940639E+001	3,085083566165483E+004	1,3576279E+001	6,5073768E-006	-1,4430327E+002	-1,3691985E+001	1,000000000000000E+000	1,3096387E-005	4,8234729E-006	0	14	2,275237039851971E-008	1,2090461E+001	4,5982056E-004	-1,2273923E+001	9,5329773E+001	9,3150764E+001	2,0265743E+001	-1,1472480E+001	9,7685600E+001	9,5733879E+001	1,9429396E+001	0,0000000E+000	3,5039717E-001	-1,1344972E-001	3,6830559E-001	-1,7940639E+001	4,131056872817216E-011
8,9299957E+002	-3,3111200E-002	3,0685644E+000	3,0687430E+000	-9,0618225E+001	3,085128166167601E+004	1,3576278E+001	6,3536154E-006	5,8080936E+001	5,8074181E+001	1,000000000000000E+000	1,4701165E-005	4,7906146E-006	0	14	2,513720690120635E-008	1,2088419E+001	4,8760834E-004	-1,1001161E+001	1,0178409E+002	9,9913635E+001	1,9423344E+001	-1,2690643E+001	1,0238166E+002	9,9880524E+001	2,2491909E+001	0,0000000E+000	-3,5160501E-003	3,2584733E-001	3,2586631E-001	9,0618225E+001	2,384836502686640E-009
6,0441974E+002	4,4817538E+000	-1,6951478E-001	4,4849586E+000	2,1660836E+000	3,085172666169715E+004	1,3576259E+001	5,7236680E-006	-1,5533666E+003	-2,2190759E+000	1,000000000000000E+000	2,1418800E-005	4,7756962E-006	0	14	2,742796431365630E-008	1,2089660E+001	5,1516370E-004	-9,6530924E+000	1,0787196E+002	1,0634460E+002	1,8088223E+001	-9,1842585E+000	1,1226558E+002	1,1082635E+002	1,7918707E+001	0,0000000E+000	2,2280817E-001	-8,4273433E-003	2,2296749E-001	-2,1660836E+000	2,290757412449948E-009
4,0908368E+002	-6,2962961E-001	2,2951233E+000	2,3799212E+000	-1,0534075E+002	3,085217166171828E+004	1,3576284E+001	6,8940126E-006	1,6951257E+002	1,5764813E+002	1,000000000000000E+000	1,1346326E-005	4,7675217E-006	0	14	2,917379816232647E-008	1,2088877E+001	5,2869943E-004	-8,3380184E+000	1,1089607E+002	1,0972388E+002	1,6081347E+001	-9,5614767E+000	1,1063114E+002	1,0909425E+002	1,8376471E+001	0,0000000E+000	-1,1116294E-001	4,0521070E-001	4,2018199E-001	1,0534075E+002	1,745833848670170E-009
2,7686047E+002	3,7251062E+000	-4,4603688E-001	3,7517149E+000	6,8279762E+000	3,085261266173923E+004	1,3576260E+001	6,0987254E-006	-1,2888085E+003	-1,8216724E+001	1,000000000000000E+000	1,7874283E-005	4,7642966E-006	0	14	3,234245694457943E-008	1,2089220E+001	5,5322051E-004	-9,2374382E+000	1,1611798E+002	1,1461211E+002	1,8639975E+001	-8,7405863E+000	1,1972768E+002	1,1833722E+002	1,8193937E+001	0,0000000E+000	2,6465431E-001	-3,1689186E-002	2,6654476E-001	-6,8279762E+000	3,168658782252960E-009
1,8742110E+002	4,4971469E-001	-5,0634093E+000	5,0833411E+000	8,4924500E+001	3,085306366176065E+004	1,3576256E+001	4,8608340E-006	-1,6770987E+002	-1,6639728E+002	1,000000000000000E+000	2,4207327E-005	4,7620897E-006	0	14	2,490804328760356E-008	1,2090575E+001	5,6994427E-004	-9,4902859E+000	1,1968365E+002	1,1804561E+002	1,9733486E+001	-7,0574784E+000	1,1939997E+002	1,1849532E+002	1,4670076E+001	0,0000000E+000	1,7403591E-002	-1,9594967E-001	1,9672102E-001	-8,4924500E+001	-7,434413656975875E-009
1,2699121E+002	9,2612324E+000	2,6794703E+000	9,6410570E+000	-1,6136274E+001	3,085350266178150E+004	1,3576299E+001	7,9818774E-006	4,6773245E+002	3,6128181E+001	1,000000000000000E+000	4,5896988E-005	4,7605763E-006	0	14	3,170912816596507E-008	1,2090556E+001	6,1024324E-004	-7,8111401E+000	1,2818684E+002	1,2699745E+002	1,7421644E+001	-8,3918447E+000	1,3773338E+002	1,3625868E+002	2,0101114E+001	0,0000000E+000	9,9636726E-002	2,8827012E-002	1,0372306E-001	1,6136274E+001	6,801084878361509E-009
8,5907173E+001	1,2620285E+001	7,6270776E+000	1,4745979E+001	-3,1146694E+001	3,085394366180245E+004	1,3576259E+001	6,2532254E-006	2,4290282E+002	6,4983276E+001	1,000000000000000E+000	7,0203096E-005	4,7608296E-006	0	14	3,126073696229999E-008	1,2090977E+001	5,3517544E-004	-5,5883141E+000	1,1241222E+002	1,1187796E+002	1,0946692E+001	-8,4853163E+000	1,2587612E+002	1,2449825E+002	1,8573771E+001	0,0000000E+000	5,8039267E-002	3,5076067E-002	6,7815095E-002	3,1146694E+001	-4,483912036650759E-010
5,8157570E+001	3,3275399E+000	8,3517208E+000	8,9902039E+000	-6,8276398E+001	3,085440266182425E+004	1,3576221E+001	7,7609420E-006	3,2767093E+002	2,8278134E+002	1,000000000000000E+000	4,2796913E-005	4,7603939E-006	0	14	3,671567892320127E-008	1,2089889E+001	6,0601084E-004	-5,2500062E+000	1,2730267E+002	1,2676862E+002	1,1648414E+001	-8,7398548E+000	1,3162453E+002	1,3009616E+002	2,0000134E+001	0,0000000E+000	4,1170310E-002	1,0333250E-001	1,1123218E-001	6,8276398E+001	5,454941960901276E-009
3,9407314E+001	2,6941309E+000	-7,5158305E+000	7,9841123E+000	7,0279228E+001	3,085485266184562E+004	1,3576262E+001	6,3793732E-006	-5,3736121E+002	-4,7617545E+002	1,000000000000000E+000	3,8004306E-005	4,7599915E-006	0	14	4,099759043326559E-008	1,2089545E+001	6,2148960E-004	-1,1101643E+001	1,3056528E+002	1,2812202E+002	2,5140358E+001	-7,6731105E+000	1,3199808E+002	1,3081616E+002	1,7624527E+001	0,0000000E+000	4,2263504E-002	-1,1790269E-001	1,2524875E-001	-7,0279228E+001	4,281911510064321E-009
2,6682035E+001	-2,3086672E+000	1,4266618E+001	1,4452209E+001	-9,9192093E+001	3,085527166186552E+004	1,3576249E+001	6,4640863E-006	4,1809995E+002	4,0743069E+002	1,000000000000000E+000	6,8813257E-005	4,7614353E-006	0	14	4,211951888735636E-008	1,2089927E+001	6,7801855E-004	-5,3384342E+000	1,4239793E+002	1,4178029E+002	1,3248490E+001	-1,1160062E+001	1,4215982E+002	1,3947162E+002	2,7515108E+001	0,0000000E+000	-1,1053326E-002	6,8305016E-002	6,9193579E-002	9,9192093E+001	1,121928454090775E-009
1,8042725E+001	3,2155912E+000	6,8181958E+000	7,5384231E+000	-6,4750542E+001	3,085576166188880E+004	1,3576259E+001	1,0544795E-005	1,2937445E+003	1,0583430E+003	1,000000000000000E+000	3,5882964E-005	4,7600092E-006	0	14	4,676311701496793E-008	1,2089564E+001	6,6291785E-004	-6,5344968E+000	1,3926819E+002	1,3836343E+002	1,5848915E+001	-9,0959854E+000	1,4338206E+002	1,4157903E+002	2,2667110E+001	0,0000000E+000	5,6584805E-002	1,1997990E-001	1,3265374E-001	6,4750542E+001	4,643598127611564E-009
1,2226137E+001	-2,8757982E+000	-9,1758490E+000	9,6159458E+000	1,0740149E+002	3,085612966190628E+004	1,3576246E+001	7,1720387E-006	-1,4186805E+003	-1,2917936E+003	1,000000000000000E+000	4,5779150E-005	4,7607537E-006	0	14	1,589479797440340E-008	1,2089087E+001	7,2408380E-004	-8,5576763E+000	1,5209436E+002	1,5040103E+002	2,2632389E+001	-5,2118220E+000	1,4813768E+002	1,4752524E+002	1,3456540E+001	0,0000000E+000	-3,1101007E-002	-9,9234395E-002	1,0399393E-001	-1,0740149E+002	-3,086831904056453E-008
8,2759562E+000	-9,7504579E-002	-8,1781235E+000	8,1787043E+000	9,0683083E+001	3,085666266193159E+004	1,3576333E+001	9,6640561E-006	-2,3515178E+003	-2,3511838E+003	1,000000000000000E+000	3,8933449E-005	4,7603444E-006	0	14	5,814469503227808E-008	1,2090003E+001	7,1096921E-004	-8,9046793E+000	1,4935248E+002	1,4755237E+002	2,3118429E+001	-5,7855339E+000	1,4820982E+002	1,4745486E+002	1,4940306E+001	0,0000000E+000	-1,4576585E-003	-1,2226007E-001	1,2226876E-001	-9,0683083E+001	4,224989705787469E-008
5,6043758E+000	4,5910475E-001	-6,3562045E+000	6,3727632E+000	8,5868736E+001	3,085706166195055E+004	1,3576294E+001	6,3790048E-006	-4,4678130E+003	-4,4446255E+003	1,000000000000000E+000	3,0333580E-005	4,7598787E-006	0	14	6,348341718818852E-008	1,2090843E+001	7,5897900E-004	-1,0776990E+001	1,5945343E+002	1,5664105E+002	2,9815689E+001	-8,4931173E+000	1,5884209E+002	1,5710016E+002	2,3459484E+001	0,0000000E+000	1,1304624E-002	-1,5651008E-001	1,5691781E-001	-8,5868736E+001	5,338722155910439E-009
3,7924759E+000	2,9642169E+000	-4,1412721E+000	5,0928102E+000	5,4405880E+001	3,085764066197805E+004	1,3576361E+001	6,4950627E-006	-1,0133595E+004	-6,7006372E+003	1,000000000000000E+000	2,4240217E-005	4,7596936E-006	0	14	6,295998097843696E-009	1,2090423E+001	7,6341117E-004	-7,1760736E+000	1,6039082E+002	1,5913448E+002	2,0035849E+001	-5,6002316E+000	1,6287610E+002	1,6209869E+002	1,5894577E+001	0,0000000E+000	1,1428652E-001	-1,5966834E-001	1,9635525E-001	-5,4405880E+001	-5,718741909034482E-008
2,5682116E+000	3,0275044E+000	1,7655008E+000	3,5046792E+000	-3,0248764E+001	3,085848266201804E+004	1,3576359E+001	6,3034959E-006	3,5101156E+004	8,9075996E+003	1,000000000000000E+000	1,6681612E-005	4,7598114E-006	0	14	-3,867844494274348E-008	1,2090786E+001	8,1337366E-004	-1,0030119E+001	1,7088359E+002	1,6827187E+002	2,9762085E+001	-1,0428558E+001	1,7417653E+002	1,7129938E+002	3,1527586E+001	0,0000000E+000	2,4648373E-001	1,4373794E-001	2,8533283E-001	3,0248764E+001	-4,497444304058718E-008
1,7399776E+000	-6,8432965E+000	-4,4989753E+000	8,1897182E+000	1,4667796E+002	3,085971566207660E+004	1,3576434E+001	7,6169476E-006	-2,0331193E+004	-6,1355308E+003	1,000000000000000E+000	3,8986967E-005	4,7604772E-006	0	14	-1,983425105328883E-009	1,2088877E+001	8,8616845E-004	-1,1588163E+001	1,8615118E+002	1,8235683E+002	3,7393223E+001	-1,0615070E+001	1,7856941E+002	1,7551353E+002	3,2894249E+001	0,0000000E+000	-1,0202990E-001	-6,7077309E-002	1,2210432E-001	-1,4667796E+002	3,669501983741460E-008
1,1772907E+000	3,6877234E+000	-3,2090685E+000	4,8884993E+000	4,1029892E+001	3,086152466216253E+004	1,3576461E+001	7,7040277E-006	-4,2126703E+004	-1,8153666E+004	1,000000000000000E+000	2,3269225E-005	4,7599938E-006	0	14	1,292961373652020E-007	1,2088629E+001	8,9072657E-004	-1,2650107E+001	1,8712767E+002	1,8258527E+002	4,0980328E+001	-1,1462658E+001	1,9006393E+002	1,8627299E+002	3,7771259E+001	0,0000000E+000	1,5431468E-001	-1,3428511E-001	2,0456176E-001	-4,1029892E+001	1,312795624705308E-007
7,9621863E-001	6,7920837E+000	-9,1195226E-002	6,7926960E+000	7,6924664E-001	3,086418966228911E+004	1,3576467E+001	7,3798665E-006	-2,1918745E+006	-3,9507138E+002	1,000000000000000E+000	3,2334458E-005	4,7601802E-006	0	14	3,055037502279055E-007	1,2089927E+001	9,3255989E-004	-1,2649316E+001	1,9590852E+002	1,9115356E+002	4,2900665E+001	-1,2203348E+001	2,0252193E+002	1,9794565E+002	4,2809471E+001	0,0000000E+000	1,4720368E-001	-1,9764586E-003	1,4721695E-001	-7,6924664E-001	1,762076128627036E-007
5,3938830E-001	6,4039416E+000	1,6093622E+001	1,7320946E+001	-6,8301506E+001	3,086811366247549E+004	1,3576427E+001	6,1728174E-006	1,8334320E+004	1,5828115E+004	1,000000000000000E+000	8,2446146E-005	4,7599101E-006	0	14	4,224457430904731E-007	1,2089660E+001	9,9966163E-004	-1,0031311E+001	2,1001691E+002	2,0680632E+002	3,6582073E+001	-1,3877585E+001	2,1962091E+002	2,1321027E+002	5,2675697E+001	0,0000000E+000	2,1345390E-002	5,3642701E-002	5,7733569E-002	6,8301506E+001	1,169419928625675E-007
3,6507010E-001	1,3144037E+001	1,5478493E+000	1,3234861E+001	-6,7162514E+000	3,087390266275045E+004	1,3576620E+001	6,8186532E-006	2,8165350E+005	3,8524209E+003	1,000000000000000E+000	6,2999134E-005	4,7600902E-006	0	14	3,016384374328646E-007	1,2090786E+001	9,5527002E-004	-1,1664207E+001	2,0068318E+002	1,9653894E+002	4,0573231E+001	-1,1358395E+001	2,1387178E+002	2,0968298E+002	4,2121078E+001	0,0000000E+000	7,5039513E-002	8,8366959E-003	7,5558029E-002	6,7162514E+000	-1,208073056576085E-007
2,4724665E-001	6,1693616E+000	5,2761233E-001	6,1918817E+000	-4,8881207E+000	3,088244366315613E+004	1,3576537E+001	7,0854594E-006	1,2200420E+006	8,8584834E+003	1,000000000000000E+000	2,9474291E-005	4,7601511E-006	0	14	-1,823438667870694E-007	1,2091244E+001	1,1065726E-003	-1,0880495E+001	2,3246585E+002	2,2828682E+002	4,3880520E+001	-1,0725286E+001	2,3862477E+002	2,3445618E+002	4,4408131E+001	0,0000000E+000	1,6091441E-001	1,3761624E-002	1,6150180E-001	4,8881207E+000	-4,839823042199340E-007
1,6750640E-001	1,2550596E+001	-1,9263248E+000	1,2697566E+001	8,7259321E+000	3,089504066375445E+004	1,3576567E+001	6,9414527E-006	-4,9324100E+005	-1,1352128E+004	1,000000000000000E+000	6,0439088E-005	4,7598955E-006	0	14	-9,693674899828328E-007	1,2091511E+001	1,1553132E-003	-9,9967766E+000	2,4271819E+002	2,3903313E+002	4,2134125E+001	-9,0801525E+000	2,5477644E+002	2,5158372E+002	4,0207802E+001	0,0000000E+000	7,7843688E-002	-1,1947817E-002	7,8755252E-002	-8,7259321E+000	-7,870236231957634E-007
1,1320493E-001	8,4999104E+000	1,9081642E+001	2,0889174E+001	-6,5989433E+001	3,091367366463947E+004	1,3576392E+001	6,6077864E-006	7,3678203E+004	6,1479172E+004	1,000000000000000E+000	9,9433644E-005	4,7600565E-006	0	14	-1,669295191623285E-006	1,2092179E+001	1,3056349E-003	-1,3748317E+001	2,7428976E+002	2,6643109E+002	6,5186981E+001	-1,7040735E+001	2,8755566E+002	2,7493100E+002	8,4268623E+001	0,0000000E+000	1,9479234E-002	4,3729369E-002	4,7871687E-002	6,5989433E+001	-6,999277016404523E-007
7,6773763E-002	9,0808315E+000	-1,0093039E+001	1,3576853E+001	4,8021893E+001	3,094114066594408E+004	1,3576514E+001	6,8271265E-006	-2,0539288E+005	-1,1350919E+005	1,000000000000000E+000	6,4623542E-005	4,7598323E-006	0	14	-1,525281316571668E-006	1,2093172E+001	1,4612797E-003	-1,6000969E+001	3,0700235E+002	2,9510818E+002	8,4626305E+001	-1,3767536E+001	3,1318710E+002	3,0418903E+002	7,4533264E+001	0,0000000E+000	4,9263742E-002	-5,4754991E-002	7,3654771E-002	-4,8021893E+001	1,440138750516174E-007
5,1879965E-002	-2,3293528E+001	-1,2800442E+001	2,6578934E+001	1,5120998E+002	3,098177766787424E+004	1,3576765E+001	7,3879996E-006	-2,3965997E+005	-5,5586625E+004	1,000000000000000E+000	1,2652547E-004	4,7603667E-006	0	14	2,127813823685061E-007	1,2094279E+001	1,7301238E-003	-2,2224888E+001	3,6344339E+002	3,3644186E+002	1,3746989E+002	-2,1708305E+001	3,3705246E+002	3,1314835E+002	1,2466945E+002	0,0000000E+000	-3,2973126E-002	-1,8119654E-002	3,7623782E-002	-1,5120998E+002	1,738062698940174E-006
3,5195883E-002	6,4070007E+001	1,4565730E+001	6,5704842E+001	-1,2807978E+001	3,104167167071905E+004	1,3576745E+001	6,6589751E-006	3,1045309E+005	1,5256881E+004	1,000000000000000E+000	3,1274976E-004	4,7599196E-006	0	14	4,160096725335910E-006	1,2094184E+001	1,5909550E-003	-2,8029539E+001	3,3423987E+002	2,9503534E+002	1,5706824E+002	-2,5545412E+001	3,9801364E+002	3,5910535E+002	1,7163397E+002	0,0000000E+000	1,4840893E-002	3,3739412E-003	1,5219579E-002	1,2807978E+001	3,947315342967404E-006
2,3795672E-002	-1,1353282E+001	7,7122903E+000	1,3725029E+001	-1,4581171E+002	3,113025167492637E+004	1,3576227E+001	6,6439034E-006	8,6723900E+005	2,7382872E+005	1,000000000000000E+000	6,5329419E-005	4,7598746E-006	0	14	9,254001685140237E-006	1,2095882E+001	1,6273889E-003	-2,8120752E+001	3,4189743E+002	3,0153857E+002	1,6114699E+002	-3,0195192E+001	3,3573944E+002	2,9018530E+002	1,6885928E+002	0,0000000E+000	-6,0269121E-002	4,0940851E-002	7,2859593E-002	1,4581171E+002	5,093904959804327E-006
1,6098291E-002	1,0146652E+001	1,9964985E+001	2,2395428E+001	-6,3059303E+001	3,126117768114503E+004	1,3576157E+001	6,7478632E-006	4,9518947E+005	3,9354156E+005	1,000000000000000E+000	1,0660098E-004	4,7599437E-006	0	14	1,231450921276878E-005	1,2099968E+001	1,4926267E-003	-2,6575396E+001	3,1358075E+002	2,8044983E+002	1,4028821E+002	-2,8875107E+001	3,3185449E+002	2,9059650E+002	1,6025319E+002	0,0000000E+000	2,0230381E-002	3,9806157E-002	4,4651970E-002	6,3059303E+001	3,060507527628539E-006
1,0915886E-002	-9,0049744E+000	1,9568932E+001	2,1541416E+001	-1,1471032E+002	3,145425469031569E+004	1,3576116E+001	6,6862854E-006	7,4506475E+005	6,1486494E+005	1,000000000000000E+000	1,0253506E-004	4,7599037E-006	0	14	8,356109778430272E-006	1,2106363E+001	1,5779115E-003	-1,4914682E+001	3,3150073E+002	3,2033252E+002	8,5321800E+001	-1,8619411E+001	3,2852231E+002	3,1132755E+002	1,0489073E+002	0,0000000E+000	-1,9405905E-002	4,2171456E-002	4,6422202E-002	1,1471032E+002	-3,958399434338504E-006
7,3873415E-003	1,4847296E+001	2,1434280E+001	2,6074327E+001	-5,5290070E+001	3,173954670386633E+004	1,3576182E+001	6,6584125E-006	1,0051319E+006	6,7922650E+005	1,000000000000000E+000	1,2411037E-004	4,7598687E-006	0	14	-7,068852780880573E-006	1,2110600E+001	2,0123420E-003	-6,4585872E+000	4,2277258E+002	4,2008942E+002	4,7555592E+001	-9,0131922E+000	4,4037433E+002	4,3493671E+002	6,8989868E+001	0,0000000E+000	2,1838417E-002	3,1527001E-002	3,8351901E-002	5,5290070E+001	-1,542496255931085E-005
5,0018891E-003	4,6464451E+001	8,4381742E+000	4,7224442E+001	-1,0293020E+001	3,216088872387900E+004	1,3575984E+001	6,6245320E-006	3,7708355E+006	1,2039291E+005	1,000000000000000E+000	2,2476944E-004	4,7595995E-006	0	14	-3,358735966399520E-005	1,2117836E+001	3,0713612E-003	-8,9127035E+000	6,4529822E+002	6,3750659E+002	9,9975685E+001	-9,0068216E+000	6,9250995E+002	6,8397107E+002	1,0841386E+002	0,0000000E+000	2,0834696E-002	3,7836840E-003	2,1175476E-002	1,0293020E+001	-2,651850688311463E-005