File: SAMPLE-MPT/20220309_SSB_Cell_03_Form01/20220309_(Form02C)EIS_charging_10bis16V_step_01V+(1C+EIS)50cycle_12_GCPL6_C08.mpt
EC-Lab ASCII FILE
Nb header lines : 76

Galvanostatic Cycling with Potential Limitation 6

Run on channel : 8 (SN 14384)
User :
CE vs. WE compliance from -10 V to 10 V
Electrode connection : standard
Potential control : Ewe-Ece
Ecell ctrl range : min = 0,00 V, max = 5,00 V
Safety Limits :
	Do not start on E overload
Acquisition started on : 03/09/2022 13:55:05.456
Technique started on : 03/09/2022 21:26:13.354
Loaded Setting File :  C:\DATA\x_Data_VMP3\Extern\InES\Binbin\001_Testing_Profiles\20220308_(Form02C)EIS_charging_10bis16V_step_01V+(1C+EIS)50cycle.mps
Saved on :
	File : 20220309_(Form02C)EIS_charging_10bis16V_step_01V+(1C+EIS)50cycle_12_GCPL6_C08.mpr
	Directory : C:\DATA\x_Data_VMP3\Extern\InES\Binbin\20220309_SSB_Cell_03_Form01\
	Host : 134.169.45.143
Device : VMP3 (SN 0787)
Address : 134.169.45.150
EC-Lab for windows v11.42 (software)
Internet server v11.40 (firmware)
Command interpretor v11.40 (firmware)
Electrode material :
Initial state :
Electrolyte :
Comments :
Electrode surface area : 0,000 cm²
Characteristic mass : 0,001 g
Equivalent Weight : 0,000 g/eq.
Density : 0,000 g/cm3
Volume (V) : 0,001 cm³
Record Ece
Record Power
Cycle Definition : Charge/Discharge alternance
Ns                  0                   1
Set I/C             I                   I
Is                  0,000               20,000
unit Is             mA                  µA
vs.                 <None>              <None>
N                   1,00                1,00
I sign              > 0                 > 0
t1 (h:m:s)          0:00:0,0000         20:00:0,0000
I Range             100 µA              100 µA
Bandwidth           5                   5
dE1 (mV)            0,00                0,00
dt1 (s)             0,0000              5,0000
EM (V)              0,000               1,500
tM (h:m:s)          0:00:0,0000         10:00:0,0000
Im                  0,000               10,000
unit Im             mA                  µA
dI/dt               0,000               0,000
dunit dI/dt         mA/s                mA/s
E range min (V)     0,000               0,000
E range max (V)     5,000               5,000
dq                  0,000               1,000
unit dq             mA.h                mA.h
dtq (s)             0,0000              120,0000
dQM                 0,000               0,000
unit dQM            mA.h                mA.h
dxM                 0,000               0,000
delta SoC (%)       pass                pass
tR (h:m:s)          0:00:10,0000        0:01:0,0000
dER/dt (mV/h)       0,0                 0,1
dER (mV)            0,00                0,00
dtR (s)             1,0000              120,0000
EL (V)              pass                pass
goto Ns'            0                   0
nc cycles           0                   0

Number of loops : 1
Loop 0 from point number 0 to 760

mode	ox/red	error	control changes	Ns changes	counter inc.	Ns	time/s	dq/mA.h	(Q-Qo)/mA.h	control/V/mA	Ewe/V	I Range	Q charge/discharge/mA.h	half cycle	Ece/V	P/W	Energy charge/W.h	Energy discharge/W.h	Capacitance charge/µF	Capacitance discharge/µF	<I>/mA	Q discharge/mA.h	Q charge/mA.h	Capacity/mA.h	Efficiency/%	control/V	control/mA	cycle number	 Ecell/V
3	1	0	1	0	0	0	2,706789750700165E+004	0,000000000000000E+000	0,000000000000000E+000	0,0000000E+000	1,0514146E+001	14	0,000000000000000E+000	0	1,3589435E+001	0,0000000E+000	0,000000000000000E+000	0,000000000000000E+000	0,000000000000000E+000	0,000000000000000E+000	0,000000000000000E+000	0,000000000000000E+000	0,000000000000000E+000	0,000000000000000E+000	0,0000000E+000	0,0000000E+000	0,0000000E+000	0,000000000000000E+000	-3,0752888E+000
3	1	0	1	0	0	0	2,707489750691690E+004	0,000000000000000E+000	0,000000000000000E+000	0,0000000E+000	1,4879138E+001	14	0,000000000000000E+000	0	1,3575104E+001	0,0000000E+000	0,000000000000000E+000	0,000000000000000E+000	0,000000000000000E+000	0,000000000000000E+000	0,000000000000000E+000	0,000000000000000E+000	0,000000000000000E+000	0,000000000000000E+000	0,0000000E+000	0,0000000E+000	0,0000000E+000	0,000000000000000E+000	1,3040342E+000
1	1	0	0	0	0	1	2,709289770669898E+004	2,785759087124218E-005	8,357368071853287E-005	2,0000001E-002	1,3577096E+001	13	8,357368071853286E-005	0	1,2220405E+001	2,7232213E-004	1,134658737622583E-006	0,000000000000000E+000	9,822727677468470E+001	0,000000000000000E+000	2,005746567013399E-002	0,000000000000000E+000	8,357368071853286E-005	8,357368071853286E-005	0,0000000E+000	0,0000000E+000	2,0000001E-002	0,000000000000000E+000	1,3566914E+000
1	1	0	0	0	0	1	2,712789770627522E+004	2,785590683503283E-005	2,785662249059727E-004	2,0000001E-002	1,3576896E+001	13	2,785662249059726E-004	0	1,2207696E+001	2,7230167E-004	3,782131420505771E-006	0,000000000000000E+000	3,274307255333504E+002	0,000000000000000E+000	2,005625316404858E-002	0,000000000000000E+000	2,785662249059726E-004	2,785662249059726E-004	0,0000000E+000	0,0000000E+000	2,0000001E-002	0,000000000000000E+000	1,3691998E+000
1	1	0	0	0	0	1	2,716289770585147E+004	2,785617711177717E-005	4,735577486971807E-004	2,0000001E-002	1,3577256E+001	13	4,735577486971807E-004	0	1,2200880E+001	2,7231153E-004	6,429494241719160E-006	0,000000000000000E+000	5,565610440512611E+002	0,000000000000000E+000	2,005644776330685E-002	0,000000000000000E+000	4,735577486971807E-004	4,735577486971807E-004	0,0000000E+000	0,0000000E+000	2,0000001E-002	0,000000000000000E+000	1,3763762E+000
1	1	0	0	0	0	1	2,719789770542772E+004	2,785652612056583E-005	6,685518746700965E-004	2,0000001E-002	1,3577978E+001	13	6,685518746700965E-004	0	1,2195869E+001	2,7232940E-004	9,076933675687813E-006	0,000000000000000E+000	7,855478128326195E+002	0,000000000000000E+000	2,005669904963773E-002	0,000000000000000E+000	6,685518746700965E-004	6,685518746700965E-004	0,0000000E+000	0,0000000E+000	2,0000001E-002	0,000000000000000E+000	1,3821087E+000
1	1	0	0	0	0	1	2,723289770500397E+004	2,785652222970708E-005	8,635472939749145E-004	2,0000001E-002	1,3575933E+001	13	8,635472939749144E-004	0	1,2189294E+001	2,7228837E-004	1,172437504791075E-005	0,000000000000000E+000	1,015344843954212E+003	0,000000000000000E+000	2,005669624821940E-002	0,000000000000000E+000	8,635472939749144E-004	8,635472939749144E-004	0,0000000E+000	0,0000000E+000	2,0000001E-002	0,000000000000000E+000	1,3866396E+000
1	1	0	0	0	0	1	2,726789770458022E+004	2,785658300730089E-005	1,058542386585122E-003	2,0000001E-002	1,3576334E+001	13	1,058542386585122E-003	0	1,2185366E+001	2,7229698E-004	1,437183546877197E-005	0,000000000000000E+000	1,244454098476916E+003	0,000000000000000E+000	2,005674000808748E-002	0,000000000000000E+000	1,058542386585122E-003	1,058542386585122E-003	0,0000000E+000	0,0000000E+000	2,0000001E-002	0,000000000000000E+000	1,3909683E+000
1	1	0	0	0	0	1	2,730289770415646E+004	2,785655474673129E-005	1,253538054472353E-003	2,0000001E-002	1,3577578E+001	13	1,253538054472353E-003	0	1,2182920E+001	2,7232166E-004	1,701924222651479E-005	0,000000000000000E+000	1,473098596407631E+003	0,000000000000000E+000	2,005671966047711E-002	0,000000000000000E+000	1,253538054472353E-003	1,253538054472353E-003	0,0000000E+000	0,0000000E+000	2,0000001E-002	0,000000000000000E+000	1,3946581E+000
1	1	0	0	0	0	1	2,733789770373271E+004	2,785723519739178E-005	1,448536218768296E-003	2,0000001E-002	1,3577296E+001	13	1,448536218768296E-003	0	1,2179192E+001	2,7232268E-004	1,966665495639008E-005	0,000000000000000E+000	1,702407553200541E+003	0,000000000000000E+000	2,005720958495859E-002	0,000000000000000E+000	1,448536218768296E-003	1,448536218768296E-003	0,0000000E+000	0,0000000E+000	2,0000001E-002	0,000000000000000E+000	1,3981047E+000
1	1	0	0	0	0	1	2,737289770330896E+004	2,785720813688305E-005	1,643534886914926E-003	2,0000001E-002	1,3576374E+001	13	1,643534886914926E-003	0	1,2175503E+001	2,7230391E-004	2,231401536433332E-005	0,000000000000000E+000	1,932163510036702E+003	0,000000000000000E+000	2,005719010139207E-002	0,000000000000000E+000	1,643534886914926E-003	1,643534886914926E-003	0,0000000E+000	0,0000000E+000	2,0000001E-002	0,000000000000000E+000	1,4008713E+000
1	1	0	0	0	0	1	2,740789770288521E+004	2,785618824449678E-005	1,838529294435763E-003	2,0000001E-002	1,3577016E+001	13	1,838529294435763E-003	0	1,2172657E+001	2,7230682E-004	2,496143744730588E-005	0,000000000000000E+000	2,160948850122052E+003	0,000000000000000E+000	2,005645577886507E-002	0,000000000000000E+000	1,838529294435763E-003	1,838529294435763E-003	0,0000000E+000	0,0000000E+000	2,0000001E-002	0,000000000000000E+000	1,4043589E+000
1	1	0	0	0	0	1	2,744289770246146E+004	2,785601143973569E-005	2,033521680093888E-003	2,0000001E-002	1,3576936E+001	13	2,033521680093887E-003	0	1,2170011E+001	2,7230347E-004	2,760888122601819E-005	0,000000000000000E+000	2,390199212725392E+003	0,000000000000000E+000	2,005632847943555E-002	0,000000000000000E+000	2,033521680093887E-003	2,033521680093887E-003	0,0000000E+000	0,0000000E+000	2,0000001E-002	0,000000000000000E+000	1,4069252E+000
1	1	0	0	0	0	1	2,747789770203771E+004	2,785565281793889E-005	2,228512885561420E-003	2,0000001E-002	1,3576856E+001	13	2,228512885561420E-003	0	1,2167565E+001	2,7229838E-004	3,025633132283932E-005	0,000000000000000E+000	2,619460180703259E+003	0,000000000000000E+000	2,005607027173872E-002	0,000000000000000E+000	2,228512885561420E-003	2,228512885561420E-003	0,0000000E+000	0,0000000E+000	2,0000001E-002	0,000000000000000E+000	1,4092903E+000
1	1	0	0	0	0	1	2,751289770161395E+004	2,785559564052770E-005	2,423502417711748E-003	2,0000001E-002	1,3576575E+001	13	2,423502417711748E-003	0	1,2164999E+001	2,7229221E-004	3,290373301168556E-005	0,000000000000000E+000	2,848917471764751E+003	0,000000000000000E+000	2,005602910400217E-002	0,000000000000000E+000	2,423502417711748E-003	2,423502417711748E-003	0,0000000E+000	0,0000000E+000	2,0000001E-002	0,000000000000000E+000	1,4115763E+000
1	1	0	0	0	0	1	2,754789770119020E+004	2,785598222011079E-005	2,618493555015884E-003	2,0000001E-002	1,3577818E+001	13	2,618493555015884E-003	0	1,2163917E+001	2,7232087E-004	3,555110846382266E-005	0,000000000000000E+000	3,076888320877153E+003	0,000000000000000E+000	2,005630744130537E-002	0,000000000000000E+000	2,618493555015884E-003	2,618493555015884E-003	0,0000000E+000	0,0000000E+000	2,0000001E-002	0,000000000000000E+000	1,4139013E+000
1	1	0	0	0	0	1	2,758289770076645E+004	2,785569239149077E-005	2,813483985162340E-003	2,0000001E-002	1,3577096E+001	13	2,813483985162340E-003	0	1,2161191E+001	2,7230359E-004	3,819852117605233E-005	0,000000000000000E+000	3,306793092462179E+003	0,000000000000000E+000	2,005609876469642E-002	0,000000000000000E+000	2,813483985162340E-003	2,813483985162340E-003	0,0000000E+000	0,0000000E+000	2,0000001E-002	0,000000000000000E+000	1,4159050E+000
1	1	0	0	0	0	1	2,761789770034270E+004	2,785643613845524E-005	3,008476798078770E-003	2,0000001E-002	1,3577256E+001	13	3,008476798078769E-003	0	1,2159146E+001	2,7231406E-004	4,084597739852270E-005	0,000000000000000E+000	3,535790497250253E+003	0,000000000000000E+000	2,005663426251732E-002	0,000000000000000E+000	3,008476798078769E-003	3,008476798078769E-003	0,0000000E+000	0,0000000E+000	2,0000001E-002	0,000000000000000E+000	1,4181099E+000
1	1	0	0	0	0	1	2,765289769991895E+004	2,785718436766830E-005	3,203471571511899E-003	2,0000001E-002	1,3576294E+001	13	3,203471571511899E-003	0	1,2156139E+001	2,7230207E-004	4,349349490478871E-005	0,000000000000000E+000	3,766146281224013E+003	0,000000000000000E+000	2,005717298755725E-002	0,000000000000000E+000	3,203471571511899E-003	3,203471571511899E-003	0,0000000E+000	0,0000000E+000	2,0000001E-002	0,000000000000000E+000	1,4201546E+000
1	1	0	0	0	0	1	2,768789769949520E+004	2,785595614421699E-005	3,398463079081227E-003	2,0000001E-002	1,3576334E+001	13	3,398463079081227E-003	0	1,2154015E+001	2,7229087E-004	4,614087758900657E-005	0,000000000000000E+000	3,995334868855551E+003	0,000000000000000E+000	2,005628866666160E-002	0,000000000000000E+000	3,398463079081227E-003	3,398463079081227E-003	0,0000000E+000	0,0000000E+000	2,0000001E-002	0,000000000000000E+000	1,4223194E+000
1	1	0	0	0	0	1	2,772289769907144E+004	2,785603991875218E-005	3,593456271139905E-003	2,0000001E-002	1,3576254E+001	13	3,593456271139904E-003	0	1,2152050E+001	2,7229008E-004	4,878812566137063E-005	0,000000000000000E+000	4,224685219373315E+003	0,000000000000000E+000	2,005634898432767E-002	0,000000000000000E+000	3,593456271139904E-003	3,593456271139904E-003	0,0000000E+000	0,0000000E+000	2,0000001E-002	0,000000000000000E+000	1,4242039E+000
1	1	0	0	0	0	1	2,775789769864769E+004	2,785638048085901E-005	3,788450821794776E-003	2,0000001E-002	1,3577818E+001	13	3,788450821794776E-003	0	1,2152210E+001	2,7232477E-004	5,143572055964385E-005	0,000000000000000E+000	4,451658880530294E+003	0,000000000000000E+000	2,005659418904756E-002	0,000000000000000E+000	3,788450821794776E-003	3,788450821794776E-003	0,0000000E+000	0,0000000E+000	2,0000001E-002	0,000000000000000E+000	1,4256077E+000
1	1	0	0	0	0	1	2,779289769822394E+004	2,785628005707016E-005	3,983443839246304E-003	2,0000001E-002	1,3576735E+001	13	3,983443839246302E-003	0	1,2149565E+001	2,7230207E-004	5,408307573890875E-005	0,000000000000000E+000	4,682441816157996E+003	0,000000000000000E+000	2,005652188391870E-002	0,000000000000000E+000	3,983443839246302E-003	3,983443839246302E-003	0,0000000E+000	0,0000000E+000	2,0000001E-002	0,000000000000000E+000	1,4271708E+000
1	1	0	0	0	0	1	2,782789769780019E+004	2,785609058218284E-005	4,178436167138422E-003	2,0000001E-002	1,3575813E+001	13	4,178436167138422E-003	0	1,2146718E+001	2,7228176E-004	5,673052877510249E-005	0,000000000000000E+000	4,913130013327353E+003	0,000000000000000E+000	2,005638546199818E-002	0,000000000000000E+000	4,178436167138422E-003	4,178436167138422E-003	0,0000000E+000	0,0000000E+000	2,0000001E-002	0,000000000000000E+000	1,4290953E+000
1	1	0	0	0	0	1	2,786289769737644E+004	2,785653903490553E-005	4,373432024672110E-003	2,0000001E-002	1,3575733E+001	13	4,373432024672111E-003	0	1,2145155E+001	2,7228452E-004	5,937797723914337E-005	0,000000000000000E+000	5,142546520108294E+003	0,000000000000000E+000	2,005670834796243E-002	0,000000000000000E+000	4,373432024672111E-003	4,373432024672111E-003	0,0000000E+000	0,0000000E+000	2,0000001E-002	0,000000000000000E+000	1,4305782E+000
1	1	0	0	0	0	1	2,789789769695268E+004	2,785670279897749E-005	4,568431285105749E-003	2,0000001E-002	1,3576054E+001	13	4,568431285105750E-003	0	1,2143711E+001	2,7229256E-004	6,202545848912177E-005	0,000000000000000E+000	5,371276299345574E+003	0,000000000000000E+000	2,005682625809567E-002	0,000000000000000E+000	4,568431285105750E-003	4,568431285105750E-003	0,0000000E+000	0,0000000E+000	2,0000001E-002	0,000000000000000E+000	1,4323425E+000
1	1	0	0	0	0	1	2,793289769652893E+004	2,785686097625229E-005	4,763432828942003E-003	2,0000001E-002	1,3577618E+001	13	4,763432828942004E-003	0	1,2144073E+001	2,7232547E-004	6,467305453234310E-005	0,000000000000000E+000	5,597687635661767E+003	0,000000000000000E+000	2,005694014573491E-002	0,000000000000000E+000	4,763432828942004E-003	4,763432828942004E-003	0,0000000E+000	0,0000000E+000	2,0000001E-002	0,000000000000000E+000	1,4335451E+000
1	1	0	0	0	0	1	2,796789769610518E+004	2,785654530860484E-005	4,958428947793941E-003	2,0000001E-002	1,3576014E+001	13	4,958428947793942E-003	0	1,2140865E+001	2,7229020E-004	6,732048978163799E-005	0,000000000000000E+000	5,829887467331858E+003	0,000000000000000E+000	2,005671286502599E-002	0,000000000000000E+000	4,958428947793942E-003	4,958428947793942E-003	0,0000000E+000	0,0000000E+000	2,0000001E-002	0,000000000000000E+000	1,4351482E+000
1	1	0	0	0	0	1	2,800289769568143E+004	2,785641640372988E-005	5,153425238474996E-003	2,0000001E-002	1,3575372E+001	13	5,153425238474998E-003	0	1,2139421E+001	2,7227608E-004	6,996792624826232E-005	0,000000000000000E+000	6,060425306204056E+003	0,000000000000000E+000	2,005662005351489E-002	0,000000000000000E+000	5,153425238474998E-003	5,153425238474998E-003	0,0000000E+000	0,0000000E+000	2,0000001E-002	0,000000000000000E+000	1,4359503E+000
1	1	0	0	0	0	1	2,803789769525768E+004	2,785642131873303E-005	5,348419263673946E-003	2,0000001E-002	1,3576655E+001	13	5,348419263673948E-003	0	1,2138659E+001	2,7230187E-004	7,261533533001081E-005	0,000000000000000E+000	6,287101841877780E+003	0,000000000000000E+000	2,005662359231720E-002	0,000000000000000E+000	5,348419263673948E-003	5,348419263673948E-003	0,0000000E+000	0,0000000E+000	2,0000001E-002	0,000000000000000E+000	1,4379959E+000
1	1	0	0	0	0	1	2,807289769483393E+004	2,785690153245297E-005	5,543414617023327E-003	2,0000001E-002	1,3578178E+001	13	5,543414617023328E-003	0	1,2138861E+001	2,7233709E-004	7,526286738031358E-005	0,000000000000000E+000	6,513081132624208E+003	0,000000000000000E+000	2,005696934619975E-002	0,000000000000000E+000	5,543414617023328E-003	5,543414617023328E-003	0,0000000E+000	0,0000000E+000	2,0000001E-002	0,000000000000000E+000	1,4393177E+000
1	1	0	0	0	0	1	2,810789769441017E+004	2,785603249642170E-005	5,738408344738185E-003	2,0000001E-002	1,3576534E+001	13	5,738408344738185E-003	0	1,2135573E+001	2,7229564E-004	7,791032489040485E-005	0,000000000000000E+000	6,745803342722048E+003	0,000000000000000E+000	2,005634364024966E-002	0,000000000000000E+000	5,738408344738185E-003	5,738408344738185E-003	0,0000000E+000	0,0000000E+000	2,0000001E-002	0,000000000000000E+000	1,4409609E+000
1	1	0	0	0	0	1	2,814289769398642E+004	2,785636998464664E-005	5,933401006226014E-003	2,0000001E-002	1,3575893E+001	13	5,933401006226013E-003	0	1,2134170E+001	2,7228610E-004	8,055774893002429E-005	0,000000000000000E+000	6,976487534279511E+003	0,000000000000000E+000	2,005658663177455E-002	0,000000000000000E+000	5,933401006226013E-003	5,933401006226013E-003	0,0000000E+000	0,0000000E+000	2,0000001E-002	0,000000000000000E+000	1,4417238E+000
1	1	0	0	0	0	1	2,817789769356267E+004	2,785771350800577E-005	6,128400524066865E-003	2,0000001E-002	1,3576214E+001	13	6,128400524066864E-003	0	1,2133489E+001	2,7230562E-004	8,320522586245760E-005	0,000000000000000E+000	7,205013732831415E+003	0,000000000000000E+000	2,005755396860484E-002	0,000000000000000E+000	6,128400524066864E-003	6,128400524066864E-003	0,0000000E+000	0,0000000E+000	2,0000001E-002	0,000000000000000E+000	1,4427252E+000
1	1	0	0	0	0	1	2,821289769313892E+004	2,785674222341428E-005	6,323400761055449E-003	2,0000001E-002	1,3576856E+001	13	6,323400761055449E-003	0	1,2132526E+001	2,7230903E-004	8,585274497191137E-005	0,000000000000000E+000	7,432712912512759E+003	0,000000000000000E+000	2,005685464369050E-002	0,000000000000000E+000	6,323400761055449E-003	6,323400761055449E-003	0,0000000E+000	0,0000000E+000	2,0000001E-002	0,000000000000000E+000	1,4443293E+000
1	1	0	0	0	0	1	2,824789769271517E+004	2,785648187756952E-005	6,518396598000700E-003	2,0000001E-002	1,3577538E+001	13	6,518396598000700E-003	0	1,2131804E+001	2,7232015E-004	8,850018311413481E-005	0,000000000000000E+000	7,660211348089784E+003	0,000000000000000E+000	2,005666719468001E-002	0,000000000000000E+000	6,518396598000700E-003	6,518396598000700E-003	0,0000000E+000	0,0000000E+000	2,0000001E-002	0,000000000000000E+000	1,4457331E+000
1	1	0	0	0	0	1	2,828289769229142E+004	2,785671666368014E-005	6,713391714316483E-003	2,0000001E-002	1,3576214E+001	13	6,713391714316484E-003	0	1,2129600E+001	2,7229590E-004	9,114760589387897E-005	0,000000000000000E+000	7,892773865802763E+003	0,000000000000000E+000	2,005683624068170E-002	0,000000000000000E+000	6,713391714316484E-003	6,713391714316484E-003	0,0000000E+000	0,0000000E+000	2,0000001E-002	0,000000000000000E+000	1,4466143E+000
1	1	0	0	0	0	1	2,831789769186766E+004	2,785697356518358E-005	6,908389436167148E-003	2,0000001E-002	1,3577497E+001	13	6,908389436167148E-003	0	1,2129680E+001	2,7232413E-004	9,379506070137847E-005	0,000000000000000E+000	8,118624619253123E+003	0,000000000000000E+000	2,005702120976641E-002	0,000000000000000E+000	6,908389436167148E-003	6,908389436167148E-003	0,0000000E+000	0,0000000E+000	2,0000001E-002	0,000000000000000E+000	1,4478178E+000
1	1	0	0	0	0	1	2,835289769144391E+004	2,785707699031465E-005	7,103389387275092E-003	2,0000001E-002	1,3576936E+001	13	7,103389387275092E-003	0	1,2127675E+001	2,7231389E-004	9,644254016964962E-005	0,000000000000000E+000	8,349316305475992E+003	0,000000000000000E+000	2,005709567586169E-002	0,000000000000000E+000	7,103389387275092E-003	7,103389387275092E-003	0,0000000E+000	0,0000000E+000	2,0000001E-002	0,000000000000000E+000	1,4492607E+000
1	1	0	0	0	0	1	2,838789769102016E+004	2,785725570056174E-005	7,298389523941403E-003	2,0000001E-002	1,3576615E+001	13	7,298389523941402E-003	0	1,2126392E+001	2,7230920E-004	9,909000321534858E-005	0,000000000000000E+000	8,579416851987949E+003	0,000000000000000E+000	2,005722434724114E-002	0,000000000000000E+000	7,298389523941402E-003	7,298389523941402E-003	0,0000000E+000	0,0000000E+000	2,0000001E-002	0,000000000000000E+000	1,4502230E+000
1	1	0	0	0	0	1	2,842289769059641E+004	2,785735860011644E-005	7,493388457868455E-003	2,0000001E-002	1,3575893E+001	13	7,493388457868454E-003	0	1,2124788E+001	2,7229573E-004	1,017374364631717E-004	0,000000000000000E+000	8,810719368365224E+003	0,000000000000000E+000	2,005729843492143E-002	0,000000000000000E+000	7,493388457868454E-003	7,493388457868454E-003	0,0000000E+000	0,0000000E+000	2,0000001E-002	0,000000000000000E+000	1,4511051E+000
1	1	0	0	0	0	1	2,845789769017266E+004	2,785783020003388E-005	7,688391683620815E-003	2,0000001E-002	1,3577056E+001	13	7,688391683620814E-003	0	1,2124748E+001	2,7232367E-004	1,043849693183863E-004	0,000000000000000E+000	9,036572846902527E+003	0,000000000000000E+000	2,005763798686610E-002	0,000000000000000E+000	7,688391683620814E-003	7,688391683620814E-003	0,0000000E+000	0,0000000E+000	2,0000001E-002	0,000000000000000E+000	1,4523077E+000
1	1	0	0	0	0	1	2,849289768974890E+004	2,785677557117823E-005	7,883391189692541E-003	2,0000001E-002	1,3577416E+001	13	7,883391189692539E-003	0	1,2124308E+001	2,7232061E-004	1,070324706404821E-004	0,000000000000000E+000	9,264675661206524E+003	0,000000000000000E+000	2,005687865408084E-002	0,000000000000000E+000	7,883391189692539E-003	7,883391189692539E-003	0,0000000E+000	0,0000000E+000	2,0000001E-002	0,000000000000000E+000	1,4531088E+000
1	1	0	0	0	0	1	2,852789768932515E+004	2,785667832847685E-005	8,078388064137867E-003	2,0000001E-002	1,3575653E+001	13	8,078388064137864E-003	0	1,2121181E+001	2,7228426E-004	1,096798770691866E-004	0,000000000000000E+000	9,499307005734221E+003	0,000000000000000E+000	2,005680863933499E-002	0,000000000000000E+000	8,078388064137864E-003	8,078388064137864E-003	0,0000000E+000	0,0000000E+000	2,0000001E-002	0,000000000000000E+000	1,4544725E+000
1	1	0	0	0	0	1	2,856289768890140E+004	2,785732568448616E-005	8,273386951445602E-003	2,0000001E-002	1,3576454E+001	13	8,273386951445598E-003	0	1,2121060E+001	2,7230667E-004	1,123274884226430E-004	0,000000000000000E+000	9,726059558967379E+003	0,000000000000000E+000	2,005727473566734E-002	0,000000000000000E+000	8,273386951445598E-003	8,273386951445598E-003	0,0000000E+000	0,0000000E+000	2,0000001E-002	0,000000000000000E+000	1,4553938E+000
1	1	0	0	0	0	1	2,859789768847765E+004	2,785687068053004E-005	8,468386871638605E-003	2,0000001E-002	1,3577336E+001	13	8,468386871638603E-003	0	1,2120860E+001	2,7231991E-004	1,149750087558212E-004	0,000000000000000E+000	9,952431340445590E+003	0,000000000000000E+000	2,005694713281497E-002	0,000000000000000E+000	8,468386871638603E-003	8,468386871638603E-003	0,0000000E+000	0,0000000E+000	2,0000001E-002	0,000000000000000E+000	1,4564762E+000
1	1	0	0	0	0	1	2,863289768805390E+004	2,785698036746019E-005	8,663385980785204E-003	2,0000001E-002	1,3576735E+001	13	8,663385980785202E-003	0	1,2119336E+001	2,7230894E-004	1,176224388293023E-004	0,000000000000000E+000	1,018360052833604E+004	0,000000000000000E+000	2,005702610740563E-002	0,000000000000000E+000	8,663385980785202E-003	8,663385980785202E-003	0,0000000E+000	0,0000000E+000	2,0000001E-002	0,000000000000000E+000	1,4573994E+000
1	1	0	0	0	0	1	2,866789768763015E+004	2,785724415185137E-005	8,858385694948024E-003	2,0000001E-002	1,3577538E+001	13	8,858385694948024E-003	0	1,2119096E+001	2,7232760E-004	1,202699642026170E-004	0,000000000000000E+000	1,041009174664364E+004	0,000000000000000E+000	2,005721603216958E-002	0,000000000000000E+000	8,858385694948024E-003	8,858385694948024E-003	0,0000000E+000	0,0000000E+000	2,0000001E-002	0,000000000000000E+000	1,4584417E+000
1	1	0	0	0	0	1	2,870289768720639E+004	2,785837687407103E-005	9,053387594849803E-003	2,0000001E-002	1,3577376E+001	13	9,053387594849801E-003	0	1,2118214E+001	2,7233546E-004	1,229174723349225E-004	0,000000000000000E+000	1,063981152802620E+004	0,000000000000000E+000	2,005803159217761E-002	0,000000000000000E+000	9,053387594849801E-003	9,053387594849801E-003	0,0000000E+000	0,0000000E+000	2,0000001E-002	0,000000000000000E+000	1,4591627E+000
1	1	0	0	0	0	1	2,873789768678264E+004	2,785784394169847E-005	9,248394877724350E-003	2,0000001E-002	1,3577216E+001	13	9,248394877724348E-003	0	1,2116891E+001	2,7232702E-004	1,255649843146854E-004	0,000000000000000E+000	1,086955842632618E+004	0,000000000000000E+000	2,005764788086472E-002	0,000000000000000E+000	9,248394877724348E-003	9,248394877724348E-003	0,0000000E+000	0,0000000E+000	2,0000001E-002	0,000000000000000E+000	1,4603252E+000
1	1	0	0	0	0	1	2,877289768635889E+004	2,785702207839737E-005	9,443397379843208E-003	2,0000001E-002	1,3577698E+001	13	9,443397379843208E-003	0	1,2116449E+001	2,7232865E-004	1,282125486285476E-004	0,000000000000000E+000	1,109699840132815E+004	0,000000000000000E+000	2,005705613928077E-002	0,000000000000000E+000	9,443397379843208E-003	9,443397379843208E-003	0,0000000E+000	0,0000000E+000	2,0000001E-002	0,000000000000000E+000	1,4612484E+000
1	1	0	0	0	0	1	2,880789768593514E+004	2,785696004300068E-005	9,638394761097825E-003	2,0000001E-002	1,3577456E+001	13	9,638394761097825E-003	0	1,2115407E+001	2,7232320E-004	1,308600445595552E-004	0,000000000000000E+000	1,132703320307016E+004	0,000000000000000E+000	2,005701147379461E-002	0,000000000000000E+000	9,638394761097825E-003	9,638394761097825E-003	0,0000000E+000	0,0000000E+000	2,0000001E-002	0,000000000000000E+000	1,4620495E+000
1	1	0	0	0	0	1	2,884289768551139E+004	2,785606602796664E-005	9,833392027358110E-003	2,0000001E-002	1,3576976E+001	13	9,833392027358110E-003	0	1,2114004E+001	2,7230481E-004	1,335075769456786E-004	0,000000000000000E+000	1,155800734289799E+004	0,000000000000000E+000	2,005636778296230E-002	0,000000000000000E+000	9,833392027358110E-003	9,833392027358110E-003	0,0000000E+000	0,0000000E+000	2,0000001E-002	0,000000000000000E+000	1,4629717E+000
1	1	0	0	0	0	1	2,887789768508764E+004	2,785616601382692E-005	1,002838459521791E-002	2,0000001E-002	1,3577136E+001	13	1,002838459521791E-002	0	1,2113282E+001	2,7230900E-004	1,361550711756365E-004	0,000000000000000E+000	1,178658184318305E+004	0,000000000000000E+000	2,005643977278258E-002	0,000000000000000E+000	1,002838459521791E-002	1,002838459521791E-002	0,0000000E+000	0,0000000E+000	2,0000001E-002	0,000000000000000E+000	1,4638538E+000
1	1	0	0	0	0	1	2,891289768466388E+004	2,785625942589508E-005	1,022337809180582E-002	2,0000001E-002	1,3578379E+001	13	1,022337809180582E-002	0	1,2113564E+001	2,7233484E-004	1,388025958675478E-004	0,000000000000000E+000	1,201088925600573E+004	0,000000000000000E+000	2,005650702947247E-002	0,000000000000000E+000	1,022337809180582E-002	1,022337809180582E-002	0,0000000E+000	0,0000000E+000	2,0000001E-002	0,000000000000000E+000	1,4648151E+000
1	1	0	0	0	0	1	2,894789768424013E+004	2,785647207664119E-005	1,041837282670776E-002	2,0000001E-002	1,3577778E+001	13	1,041837282670775E-002	0	1,2112240E+001	2,7232486E-004	1,414500458264787E-004	0,000000000000000E+000	1,224237833931054E+004	0,000000000000000E+000	2,005666013801152E-002	0,000000000000000E+000	1,041837282670775E-002	1,041837282670775E-002	0,0000000E+000	0,0000000E+000	2,0000001E-002	0,000000000000000E+000	1,4655380E+000
1	1	0	0	0	0	1	2,898289768381638E+004	2,785746903727866E-005	1,061337067628041E-002	2,0000001E-002	1,3576334E+001	13	1,061337067628041E-002	0	1,2109795E+001	2,7230565E-004	1,440975737786315E-004	0,000000000000000E+000	1,247739609120486E+004	0,000000000000000E+000	2,005737794967919E-002	0,000000000000000E+000	1,061337067628041E-002	1,061337067628041E-002	0,0000000E+000	0,0000000E+000	2,0000001E-002	0,000000000000000E+000	1,4665394E+000
1	1	0	0	0	0	1	2,901789768339263E+004	2,785780074726790E-005	1,080837228174259E-002	2,0000001E-002	1,3577416E+001	13	1,080837228174259E-002	0	1,2110155E+001	2,7233062E-004	1,467450689860202E-004	0,000000000000000E+000	1,270215586242210E+004	0,000000000000000E+000	2,005761678087434E-002	0,000000000000000E+000	1,080837228174259E-002	1,080837228174259E-002	0,0000000E+000	0,0000000E+000	2,0000001E-002	0,000000000000000E+000	1,4672613E+000
1	1	0	0	0	0	1	2,905289768296888E+004	2,785666797268722E-005	1,100337131836503E-002	2,0000001E-002	1,3576776E+001	13	1,100337131836503E-002	0	1,2108552E+001	2,7230667E-004	1,493924645481436E-004	0,000000000000000E+000	1,293402749601213E+004	0,000000000000000E+000	2,005680118316637E-002	0,000000000000000E+000	1,100337131836503E-002	1,100337131836503E-002	0,0000000E+000	0,0000000E+000	2,0000001E-002	0,000000000000000E+000	1,4682236E+000
1	1	0	0	0	0	1	2,908789768254512E+004	2,785672728065401E-005	1,119836798630914E-002	2,0000001E-002	1,3575813E+001	13	1,119836798630913E-002	0	1,2106467E+001	2,7228796E-004	1,520398100996028E-004	0,000000000000000E+000	1,316737546130783E+004	0,000000000000000E+000	2,005684388490298E-002	0,000000000000000E+000	1,119836798630913E-002	1,119836798630913E-002	0,0000000E+000	0,0000000E+000	2,0000001E-002	0,000000000000000E+000	1,4693460E+000
1	1	0	0	0	0	1	2,912289768212137E+004	2,785648718145159E-005	1,139336474717874E-002	2,0000001E-002	1,3576174E+001	13	1,139336474717874E-002	0	1,2106547E+001	2,7229285E-004	1,546872294915245E-004	0,000000000000000E+000	1,339508130273330E+004	0,000000000000000E+000	2,005667101347514E-002	0,000000000000000E+000	1,139336474717874E-002	1,139336474717874E-002	0,0000000E+000	0,0000000E+000	2,0000001E-002	0,000000000000000E+000	1,4696264E+000
1	1	0	0	0	0	1	2,915789768169762E+004	2,785625464810679E-005	1,158835974904015E-002	2,0000001E-002	1,3576655E+001	13	1,158835974904015E-002	0	1,2105946E+001	2,7230024E-004	1,573347154588214E-004	0,000000000000000E+000	1,362219271353185E+004	0,000000000000000E+000	2,005650358946486E-002	0,000000000000000E+000	1,158835974904015E-002	1,158835974904015E-002	0,0000000E+000	0,0000000E+000	2,0000001E-002	0,000000000000000E+000	1,4707098E+000
1	1	0	0	0	0	1	2,919289768127387E+004	2,785646060730020E-005	1,178335480994949E-002	2,0000001E-002	1,3578259E+001	13	1,178335480994948E-002	0	1,2106507E+001	2,7233441E-004	1,599823407160394E-004	0,000000000000000E+000	1,384416370335449E+004	0,000000000000000E+000	2,005665188008591E-002	0,000000000000000E+000	1,178335480994948E-002	1,178335480994948E-002	0,0000000E+000	0,0000000E+000	2,0000001E-002	0,000000000000000E+000	1,4717512E+000
1	1	0	0	0	0	1	2,922789768085012E+004	2,785650269945877E-005	1,197835082404305E-002	2,0000001E-002	1,3577858E+001	13	1,197835082404305E-002	0	1,2105745E+001	2,7232678E-004	1,626298706068731E-004	0,000000000000000E+000	1,407510277622449E+004	0,000000000000000E+000	2,005668218644044E-002	0,000000000000000E+000	1,197835082404305E-002	1,197835082404305E-002	0,0000000E+000	0,0000000E+000	2,0000001E-002	0,000000000000000E+000	1,4721127E+000
1	1	0	0	0	0	1	2,926289768042637E+004	2,785733463501351E-005	1,217334923647023E-002	2,0000001E-002	1,3577938E+001	13	1,217334923647023E-002	0	1,2104783E+001	2,7233653E-004	1,652774051126601E-004	0,000000000000000E+000	1,430386069942674E+004	0,000000000000000E+000	2,005728118004711E-002	0,000000000000000E+000	1,217334923647023E-002	1,217334923647023E-002	0,0000000E+000	0,0000000E+000	2,0000001E-002	0,000000000000000E+000	1,4731550E+000
1	1	0	0	0	0	1	2,929789768000261E+004	2,785725108958367E-005	1,236835002014403E-002	2,0000001E-002	1,3577136E+001	13	1,236835002014403E-002	0	1,2103340E+001	2,7231962E-004	1,679248299188082E-004	0,000000000000000E+000	1,453679487393001E+004	0,000000000000000E+000	2,005722102733690E-002	0,000000000000000E+000	1,236835002014403E-002	1,236835002014403E-002	0,0000000E+000	0,0000000E+000	2,0000001E-002	0,000000000000000E+000	1,4737959E+000
1	1	0	0	0	0	1	2,933289767957886E+004	2,785658551100641E-005	1,256334439981957E-002	2,0000001E-002	1,3577778E+001	13	1,256334439981956E-002	0	1,2103180E+001	2,7232597E-004	1,705723912013418E-004	0,000000000000000E+000	1,476288264088284E+004	0,000000000000000E+000	2,005674181075547E-002	0,000000000000000E+000	1,256334439981956E-002	1,256334439981956E-002	0,0000000E+000	0,0000000E+000	2,0000001E-002	0,000000000000000E+000	1,4745979E+000
1	1	0	0	0	0	1	2,936789767915511E+004	2,785618613080846E-005	1,275833749271940E-002	2,0000001E-002	1,3575813E+001	13	1,275833749271939E-002	0	1,2100654E+001	2,7228269E-004	1,732197842784947E-004	0,000000000000000E+000	1,500163418759790E+004	0,000000000000000E+000	2,005645425700946E-002	0,000000000000000E+000	1,275833749271939E-002	1,275833749271939E-002	0,0000000E+000	0,0000000E+000	2,0000001E-002	0,000000000000000E+000	1,4751596E+000
1	1	0	0	0	0	1	2,940289767873136E+004	2,785655503440648E-005	1,295333221568664E-002	2,0000001E-002	1,3576174E+001	13	1,295333221568663E-002	0	1,2099973E+001	2,7229349E-004	1,758671391556089E-004	0,000000000000000E+000	1,522912168798969E+004	0,000000000000000E+000	2,005671986760325E-002	0,000000000000000E+000	1,295333221568663E-002	1,295333221568663E-002	0,0000000E+000	0,0000000E+000	2,0000001E-002	0,000000000000000E+000	1,4762011E+000
1	1	0	0	0	0	1	2,943789767830761E+004	2,785632332134992E-005	1,314832709972126E-002	2,0000001E-002	1,3577336E+001	13	1,314832709972125E-002	0	1,2100493E+001	2,7231456E-004	1,785145889342440E-004	0,000000000000000E+000	1,545250880541967E+004	0,000000000000000E+000	2,005655303420051E-002	0,000000000000000E+000	1,314832709972125E-002	1,314832709972125E-002	0,0000000E+000	0,0000000E+000	2,0000001E-002	0,000000000000000E+000	1,4768429E+000
1	1	0	0	0	0	1	2,947289767788386E+004	2,785640641767532E-005	1,334332070443438E-002	2,0000001E-002	1,3577016E+001	13	1,334332070443437E-002	0	1,2100186E+001	2,7230894E-004	1,811619397868395E-004	0,000000000000000E+000	1,568331471264717E+004	0,000000000000000E+000	2,005661286355552E-002	0,000000000000000E+000	1,334332070443437E-002	1,334332070443437E-002	0,0000000E+000	0,0000000E+000	2,0000001E-002	0,000000000000000E+000	1,4768295E+000
1	1	0	0	0	0	1	2,950789767746010E+004	2,785597838057826E-005	1,353831414406840E-002	2,0000001E-002	1,3577778E+001	13	1,353831414406839E-002	0	1,2099919E+001	2,7232006E-004	1,838093531653573E-004	0,000000000000000E+000	1,590854604504485E+004	0,000000000000000E+000	2,005630467684191E-002	0,000000000000000E+000	1,353831414406839E-002	1,353831414406839E-002	0,0000000E+000	0,0000000E+000	2,0000001E-002	0,000000000000000E+000	1,4778585E+000
1	1	0	0	0	0	1	2,954289767703635E+004	2,785719468341106E-005	1,373331096628484E-002	2,0000001E-002	1,3577938E+001	13	1,373331096628484E-002	0	1,2099346E+001	2,7233516E-004	1,864568146746387E-004	0,000000000000000E+000	1,613683820185933E+004	0,000000000000000E+000	2,005718041489213E-002	0,000000000000000E+000	1,373331096628484E-002	1,373331096628484E-002	0,0000000E+000	0,0000000E+000	2,0000001E-002	0,000000000000000E+000	1,4785919E+000
1	1	0	0	0	0	1	2,957789767661260E+004	2,785754597187042E-005	1,392831081873251E-002	2,0000001E-002	1,3578218E+001	13	1,392831081873250E-002	0	1,2098965E+001	2,7234422E-004	1,891043374637280E-004	0,000000000000000E+000	1,636446825738129E+004	0,000000000000000E+000	2,005743334258593E-002	0,000000000000000E+000	1,392831081873250E-002	1,392831081873250E-002	0,0000000E+000	0,0000000E+000	2,0000001E-002	0,000000000000000E+000	1,4792538E+000
1	1	0	0	0	0	1	2,961289767618885E+004	2,785641971064939E-005	1,412330647219034E-002	2,0000001E-002	1,3577618E+001	13	1,412330647219034E-002	0	1,2097915E+001	2,7232114E-004	1,917518401417478E-004	0,000000000000000E+000	1,659682436030090E+004	0,000000000000000E+000	2,005662243449697E-002	0,000000000000000E+000	1,412330647219034E-002	1,412330647219034E-002	0,0000000E+000	0,0000000E+000	2,0000001E-002	0,000000000000000E+000	1,4797029E+000
1	1	0	0	0	0	1	2,964789767576510E+004	2,785588410879589E-005	1,431829925087974E-002	2,0000001E-002	1,3577538E+001	13	1,431829925087973E-002	0	1,2097036E+001	2,7231430E-004	1,943991943107521E-004	0,000000000000000E+000	1,682640765377415E+004	0,000000000000000E+000	2,005623680115778E-002	0,000000000000000E+000	1,431829925087973E-002	1,431829925087973E-002	0,0000000E+000	0,0000000E+000	2,0000001E-002	0,000000000000000E+000	1,4805012E+000
1	1	0	0	0	0	1	2,968289767534134E+004	2,785613618356486E-005	1,451329214387522E-002	2,0000001E-002	1,3576776E+001	13	1,451329214387521E-002	0	1,2095433E+001	2,7230149E-004	1,970465779262501E-004	0,000000000000000E+000	1,705980051161547E+004	0,000000000000000E+000	2,005641829499364E-002	0,000000000000000E+000	1,451329214387521E-002	1,451329214387521E-002	0,0000000E+000	0,0000000E+000	2,0000001E-002	0,000000000000000E+000	1,4813423E+000
1	1	0	0	0	0	1	2,971789767491759E+004	2,785617932470308E-005	1,470828594411413E-002	2,0000001E-002	1,3577778E+001	13	1,470828594411412E-002	0	1,2095796E+001	2,7232201E-004	1,996939191332546E-004	0,000000000000000E+000	1,728335165631708E+004	0,000000000000000E+000	2,005644935661353E-002	0,000000000000000E+000	1,470828594411412E-002	1,470828594411412E-002	0,0000000E+000	0,0000000E+000	2,0000001E-002	0,000000000000000E+000	1,4819822E+000
1	1	0	0	0	0	1	2,975289767449384E+004	2,785616392497387E-005	1,490327884972126E-002	2,0000001E-002	1,3576615E+001	13	1,490327884972126E-002	0	1,2094250E+001	2,7229855E-004	2,023413241456060E-004	0,000000000000000E+000	1,751913093892037E+004	0,000000000000000E+000	2,005643826880837E-002	0,000000000000000E+000	1,490327884972126E-002	1,490327884972126E-002	0,0000000E+000	0,0000000E+000	2,0000001E-002	0,000000000000000E+000	1,4823656E+000
1	1	0	0	0	0	1	2,978789767407009E+004	2,785619424138632E-005	1,509827190467094E-002	2,0000001E-002	1,3577176E+001	13	1,509827190467094E-002	0	1,2094059E+001	2,7231008E-004	2,049886664184290E-004	0,000000000000000E+000	1,774510029159917E+004	0,000000000000000E+000	2,005646009662559E-002	0,000000000000000E+000	1,509827190467094E-002	1,509827190467094E-002	0,0000000E+000	0,0000000E+000	2,0000001E-002	0,000000000000000E+000	1,4831171E+000
1	1	0	0	0	0	1	2,982289767364634E+004	2,785692300657845E-005	1,529326853949411E-002	2,0000001E-002	1,3577176E+001	13	1,529326853949410E-002	0	1,2093295E+001	2,7231721E-004	2,076360416717789E-004	0,000000000000000E+000	1,797428114509744E+004	0,000000000000000E+000	2,005698480757028E-002	0,000000000000000E+000	1,529326853949410E-002	1,529326853949410E-002	0,0000000E+000	0,0000000E+000	2,0000001E-002	0,000000000000000E+000	1,4838810E+000
1	1	0	0	0	0	1	2,985789767322259E+004	2,785748159388701E-005	1,548826827830832E-002	2,0000001E-002	1,3576014E+001	13	1,548826827830831E-002	0	1,2091176E+001	2,7229937E-004	2,102834311175127E-004	0,000000000000000E+000	1,821037713297401E+004	0,000000000000000E+000	2,005738699043731E-002	0,000000000000000E+000	1,548826827830831E-002	1,548826827830831E-002	0,0000000E+000	0,0000000E+000	2,0000001E-002	0,000000000000000E+000	1,4848375E+000
1	1	0	0	0	0	1	2,989289767279883E+004	2,785607198025617E-005	1,568326211232992E-002	2,0000001E-002	1,3575212E+001	13	1,568326211232991E-002	0	1,2090050E+001	2,7226951E-004	2,129307638576814E-004	0,000000000000000E+000	1,844447314120508E+004	0,000000000000000E+000	2,005637206861082E-002	0,000000000000000E+000	1,568326211232991E-002	1,568326211232991E-002	0,0000000E+000	0,0000000E+000	2,0000001E-002	0,000000000000000E+000	1,4851618E+000
1	1	0	0	0	0	1	2,992789767237508E+004	2,785629183612764E-005	1,587825581641288E-002	2,0000001E-002	1,3577778E+001	13	1,587825581641287E-002	0	1,2092035E+001	2,7232312E-004	2,155781540220712E-004	0,000000000000000E+000	1,865815500234039E+004	0,000000000000000E+000	2,005653036484020E-002	0,000000000000000E+000	1,587825581641287E-002	1,587825581641287E-002	0,0000000E+000	0,0000000E+000	2,0000001E-002	0,000000000000000E+000	1,4857426E+000
1	1	0	0	0	0	1	2,996289767195133E+004	2,785621131459872E-005	1,607324854743367E-002	2,0000001E-002	1,3575492E+001	13	1,607324854743366E-002	0	1,2088962E+001	2,7227649E-004	2,182253668001740E-004	0,000000000000000E+000	1,890138969872334E+004	0,000000000000000E+000	2,005647238933867E-002	0,000000000000000E+000	1,607324854743366E-002	1,607324854743366E-002	0,0000000E+000	0,0000000E+000	2,0000001E-002	0,000000000000000E+000	1,4865303E+000
1	1	0	0	0	0	1	2,999789767152758E+004	2,785628599342373E-005	1,626824095211520E-002	2,0000001E-002	1,3575091E+001	13	1,626824095211518E-002	0	1,2088294E+001	2,7226916E-004	2,208724500230240E-004	0,000000000000000E+000	1,913319502740140E+004	0,000000000000000E+000	2,005652615809332E-002	0,000000000000000E+000	1,626824095211518E-002	1,626824095211518E-002	0,0000000E+000	0,0000000E+000	2,0000001E-002	0,000000000000000E+000	1,4867973E+000
1	1	0	0	0	0	1	3,003289767110383E+004	2,785625580801732E-005	1,646323410985743E-002	2,0000001E-002	1,3577698E+001	13	1,646323410985742E-002	0	1,2089973E+001	2,7232117E-004	2,235198238437323E-004	0,000000000000000E+000	1,934605473531520E+004	0,000000000000000E+000	2,005650442460045E-002	0,000000000000000E+000	1,646323410985742E-002	1,646323410985742E-002	0,0000000E+000	0,0000000E+000	2,0000001E-002	0,000000000000000E+000	1,4877243E+000
1	1	0	0	0	0	1	3,006789767068008E+004	2,785628488214893E-005	1,665822818669439E-002	2,0000001E-002	1,3576374E+001	13	1,665822818669438E-002	0	1,2088064E+001	2,7229488E-004	2,261673084095824E-004	0,000000000000000E+000	1,958365526673594E+004	0,000000000000000E+000	2,005652535797546E-002	0,000000000000000E+000	1,665822818669438E-002	1,665822818669438E-002	0,0000000E+000	0,0000000E+000	2,0000001E-002	0,000000000000000E+000	1,4883099E+000
1	1	0	0	0	0	1	3,010289767025632E+004	2,785671570265873E-005	1,685322662931732E-002	2,0000001E-002	1,3576294E+001	13	1,685322662931732E-002	0	1,2087110E+001	2,7229750E-004	2,288145585060137E-004	0,000000000000000E+000	1,981341659500760E+004	0,000000000000000E+000	2,005683554874627E-002	0,000000000000000E+000	1,685322662931732E-002	1,685322662931732E-002	0,0000000E+000	0,0000000E+000	2,0000001E-002	0,000000000000000E+000	1,4891844E+000
1	1	0	0	0	0	1	3,013789766983257E+004	2,785652779591166E-005	1,704822605087184E-002	2,0000001E-002	1,3575613E+001	13	1,704822605087183E-002	0	1,2086002E+001	2,7228199E-004	2,314618330764621E-004	0,000000000000000E+000	2,004712458464751E+004	0,000000000000000E+000	2,005670025588675E-002	0,000000000000000E+000	1,704822605087183E-002	1,704822605087183E-002	0,0000000E+000	0,0000000E+000	2,0000001E-002	0,000000000000000E+000	1,4896107E+000
1	1	0	0	0	0	1	3,017289766940882E+004	2,785631397056083E-005	1,724322132347783E-002	2,0000001E-002	1,3577578E+001	13	1,724322132347782E-002	0	1,2087187E+001	2,7231930E-004	2,341092221942719E-004	0,000000000000000E+000	2,026341764299549E+004	0,000000000000000E+000	2,005654630163228E-002	0,000000000000000E+000	1,724322132347782E-002	1,724322132347782E-002	0,0000000E+000	0,0000000E+000	2,0000001E-002	0,000000000000000E+000	1,4903908E+000
1	1	0	0	0	0	1	3,020789766898507E+004	2,785619401517842E-005	1,743821433017403E-002	2,0000001E-002	1,3576776E+001	13	1,743821433017402E-002	0	1,2085983E+001	2,7230204E-004	2,367564889766548E-004	0,000000000000000E+000	2,049793077975823E+004	0,000000000000000E+000	2,005645993375590E-002	0,000000000000000E+000	1,743821433017402E-002	1,743821433017402E-002	0,0000000E+000	0,0000000E+000	2,0000001E-002	0,000000000000000E+000	1,4907923E+000
1	1	0	0	0	0	1	3,024289766856132E+004	2,785629473968098E-005	1,763320895570248E-002	2,0000001E-002	1,3575893E+001	13	1,763320895570246E-002	0	1,2084514E+001	2,7228534E-004	2,394039195453688E-004	0,000000000000000E+000	2,073311113469652E+004	0,000000000000000E+000	2,005653245539863E-002	0,000000000000000E+000	1,763320895570246E-002	1,763320895570246E-002	0,0000000E+000	0,0000000E+000	2,0000001E-002	0,000000000000000E+000	1,4913797E+000
1	1	0	0	0	0	1	3,027789766813756E+004	2,785648926999420E-005	1,782820459271109E-002	2,0000001E-002	1,3575131E+001	13	1,782820459271108E-002	0	1,2083139E+001	2,7227195E-004	2,420512980159189E-004	0,000000000000000E+000	2,096760509547500E+004	0,000000000000000E+000	2,005667251722584E-002	0,000000000000000E+000	1,782820459271108E-002	1,782820459271108E-002	0,0000000E+000	0,0000000E+000	2,0000001E-002	0,000000000000000E+000	1,4919920E+000
1	1	0	0	0	0	1	3,031289766771381E+004	2,785609173329754E-005	1,802319819511525E-002	2,0000001E-002	1,3576134E+001	13	1,802319819511524E-002	0	1,2083750E+001	2,7228816E-004	2,446985505171203E-004	0,000000000000000E+000	2,118999686186592E+004	0,000000000000000E+000	2,005638629080078E-002	0,000000000000000E+000	1,802319819511524E-002	1,802319819511524E-002	0,0000000E+000	0,0000000E+000	2,0000001E-002	0,000000000000000E+000	1,4923840E+000
1	1	0	0	0	0	1	3,034789766729006E+004	2,785628787200484E-005	1,821819215555841E-002	2,0000001E-002	1,3576494E+001	13	1,821819215555840E-002	0	1,2083616E+001	2,7229733E-004	2,473459206773534E-004	0,000000000000000E+000	2,141673118996249E+004	0,000000000000000E+000	2,005652751067175E-002	0,000000000000000E+000	1,821819215555840E-002	1,821819215555840E-002	0,0000000E+000	0,0000000E+000	2,0000001E-002	0,000000000000000E+000	1,4928780E+000
1	1	0	0	0	0	1	3,038289766686631E+004	2,785719215600855E-005	1,841319193143894E-002	2,0000001E-002	1,3576214E+001	13	1,841319193143894E-002	0	1,2082414E+001	2,7230056E-004	2,499934424248659E-004	0,000000000000000E+000	2,164794879353591E+004	0,000000000000000E+000	2,005717859516230E-002	0,000000000000000E+000	1,841319193143894E-002	1,841319193143894E-002	0,0000000E+000	0,0000000E+000	2,0000001E-002	0,000000000000000E+000	1,4938002E+000
1	1	0	0	0	0	1	3,041789766644256E+004	2,785631536133587E-005	1,860819030131886E-002	2,0000001E-002	1,3577738E+001	13	1,860819030131886E-002	0	1,2083235E+001	2,7232253E-004	2,526409093787549E-004	0,000000000000000E+000	2,186632097974591E+004	0,000000000000000E+000	2,005654730299033E-002	0,000000000000000E+000	1,860819030131886E-002	1,860819030131886E-002	0,0000000E+000	0,0000000E+000	2,0000001E-002	0,000000000000000E+000	1,4945030E+000
1	1	0	0	0	0	1	3,045289766601881E+004	2,785636341075103E-005	1,880318485922294E-002	2,0000001E-002	1,3577618E+001	13	1,880318485922294E-002	0	1,2083063E+001	2,7232058E-004	2,552883301560860E-004	0,000000000000000E+000	2,209632405395178E+004	0,000000000000000E+000	2,005658189856966E-002	0,000000000000000E+000	1,880318485922294E-002	1,880318485922294E-002	0,0000000E+000	0,0000000E+000	2,0000001E-002	0,000000000000000E+000	1,4945545E+000
1	1	0	0	0	0	1	3,048789766559505E+004	2,785670391190797E-005	1,899818108441267E-002	2,0000001E-002	1,3577978E+001	13	1,899818108441266E-002	0	1,2082547E+001	2,7233115E-004	2,579357802650327E-004	0,000000000000000E+000	2,232284459006684E+004	0,000000000000000E+000	2,005682705940563E-002	0,000000000000000E+000	1,899818108441266E-002	1,899818108441266E-002	0,0000000E+000	0,0000000E+000	2,0000001E-002	0,000000000000000E+000	1,4954309E+000
1	1	0	0	0	0	1	3,052289766517130E+004	2,785647147469636E-005	1,919317748377710E-002	2,0000001E-002	1,3575452E+001	13	1,919317748377710E-002	0	1,2079665E+001	2,7227821E-004	2,605831589908640E-004	0,000000000000000E+000	2,257057574352513E+004	0,000000000000000E+000	2,005665970461124E-002	0,000000000000000E+000	1,919317748377710E-002	1,919317748377710E-002	0,0000000E+000	0,0000000E+000	2,0000001E-002	0,000000000000000E+000	1,4957867E+000
1	1	0	0	0	0	1	3,055789766474755E+004	2,785634504569074E-005	1,938817167634082E-002	2,0000001E-002	1,3576014E+001	13	1,938817167634082E-002	0	1,2079665E+001	2,7228825E-004	2,632304999722797E-004	0,000000000000000E+000	2,279570006154196E+004	0,000000000000000E+000	2,005656867572609E-002	0,000000000000000E+000	1,938817167634082E-002	1,938817167634082E-002	0,0000000E+000	0,0000000E+000	2,0000001E-002	0,000000000000000E+000	1,4963484E+000
1	1	0	0	0	0	1	3,059289766432380E+004	2,785638423295071E-005	1,958316647882967E-002	2,0000001E-002	1,3577376E+001	13	1,958316647882966E-002	0	1,2080390E+001	2,7231596E-004	2,658778559287775E-004	0,000000000000000E+000	2,301472219915101E+004	0,000000000000000E+000	2,005659689055361E-002	0,000000000000000E+000	1,958316647882966E-002	1,958316647882966E-002	0,0000000E+000	0,0000000E+000	2,0000001E-002	0,000000000000000E+000	1,4969864E+000
1	1	0	0	0	0	1	3,062789766390005E+004	2,785701631713245E-005	1,977816235645239E-002	2,0000001E-002	1,3576134E+001	13	1,977816235645238E-002	0	1,2078825E+001	2,7229721E-004	2,685251940705314E-004	0,000000000000000E+000	2,325332017822938E+004	0,000000000000000E+000	2,005705199116997E-002	0,000000000000000E+000	1,977816235645238E-002	1,977816235645238E-002	0,0000000E+000	0,0000000E+000	2,0000001E-002	0,000000000000000E+000	1,4973087E+000
1	1	0	0	0	0	1	3,066289766347629E+004	2,785756900327073E-005	1,997316514788071E-002	2,0000001E-002	1,3577136E+001	13	1,997316514788069E-002	0	1,2079245E+001	2,7232271E-004	2,711726349768233E-004	0,000000000000000E+000	2,347490200915970E+004	0,000000000000000E+000	2,005744992519435E-002	0,000000000000000E+000	1,997316514788069E-002	1,997316514788069E-002	0,0000000E+000	0,0000000E+000	2,0000001E-002	0,000000000000000E+000	1,4978914E+000
1	1	0	0	0	0	1	3,069789766305254E+004	2,785692590454386E-005	2,016816527368894E-002	2,0000001E-002	1,3575412E+001	13	2,016816527368893E-002	0	1,2076954E+001	2,7228185E-004	2,738200029010791E-004	0,000000000000000E+000	2,371744117611227E+004	0,000000000000000E+000	2,005698689410540E-002	0,000000000000000E+000	2,016816527368893E-002	2,016816527368893E-002	0,0000000E+000	0,0000000E+000	2,0000001E-002	0,000000000000000E+000	1,4984579E+000
1	1	0	0	0	0	1	3,073289766262879E+004	2,785634676180780E-005	2,036316041813574E-002	2,0000001E-002	1,3576896E+001	13	2,036316041813572E-002	0	1,2077584E+001	2,7230594E-004	2,764673210213353E-004	0,000000000000000E+000	2,393515004237409E+004	0,000000000000000E+000	2,005656991133039E-002	0,000000000000000E+000	2,036316041813572E-002	2,036316041813572E-002	0,0000000E+000	0,0000000E+000	2,0000001E-002	0,000000000000000E+000	1,4993114E+000
1	1	0	0	0	0	1	3,076789766220504E+004	2,785666958087434E-005	2,055815609518801E-002	2,0000001E-002	1,3575893E+001	13	2,055815609518799E-002	0	1,2076115E+001	2,7228901E-004	2,791146307777700E-004	0,000000000000000E+000	2,417226133466364E+004	0,000000000000000E+000	2,005680234106112E-002	0,000000000000000E+000	2,055815609518799E-002	2,055815609518799E-002	0,0000000E+000	0,0000000E+000	2,0000001E-002	0,000000000000000E+000	1,4997787E+000
2	0	0	1	0	0	1	3,078322006201954E+004	-2,741893767476237E-008	2,064327113114776E-002	1,4999670E+000	1,3577336E+001	13	2,064327113114696E-002	0	1,2080811E+001	-3,3673219E-005	2,802706169032717E-004	3,722761381099286E-010	3,758037687206981E+004	0,000000000000000E+000	-2,480104946220179E-003	0,000000000000000E+000	2,064327113114696E-002	2,064327113114696E-002	0,0000000E+000	1,4999670E+000	0,0000000E+000	0,000000000000000E+000	1,4965258E+000
3	1	0	0	0	0	1	3,084322046129311E+004	0,000000000000000E+000	2,064327106710513E-002	0,0000000E+000	1,5064139E+001	14	2,064327110965791E-002	0	1,3574983E+001	0,0000000E+000	2,802706169032717E-004	3,725678952732088E-010	3,758037687206981E+004	3,082861381349109E+002	0,000000000000000E+000	0,000000000000000E+000	2,064327110965791E-002	2,064327110965791E-002	0,0000000E+000	0,0000000E+000	0,0000000E+000	0,000000000000000E+000	1,4891567E+000