File: SAMPLE-MPT/20220309_SSB_Cell_03_Form01/20220309_(Form02C)EIS_charging_10bis16V_step_01V+(1C+EIS)50cycle_14_GCPL6_C08.mpt
EC-Lab ASCII FILE
Nb header lines : 76

Galvanostatic Cycling with Potential Limitation 6

Run on channel : 8 (SN 14384)
User :
CE vs. WE compliance from -10 V to 10 V
Electrode connection : standard
Potential control : Ewe-Ece
Ecell ctrl range : min = 0,00 V, max = 5,00 V
Safety Limits :
	Do not start on E overload
Acquisition started on : 03/09/2022 13:55:05.456
Technique started on : 03/09/2022 22:51:06.397
Loaded Setting File :  C:\DATA\x_Data_VMP3\Extern\InES\Binbin\001_Testing_Profiles\20220308_(Form02C)EIS_charging_10bis16V_step_01V+(1C+EIS)50cycle.mps
Saved on :
	File : 20220309_(Form02C)EIS_charging_10bis16V_step_01V+(1C+EIS)50cycle_14_GCPL6_C08.mpr
	Directory : C:\DATA\x_Data_VMP3\Extern\InES\Binbin\20220309_SSB_Cell_03_Form01\
	Host : 134.169.45.143
Device : VMP3 (SN 0787)
Address : 134.169.45.150
EC-Lab for windows v11.42 (software)
Internet server v11.40 (firmware)
Command interpretor v11.40 (firmware)
Electrode material :
Initial state :
Electrolyte :
Comments :
Electrode surface area : 0,000 cm²
Characteristic mass : 0,001 g
Equivalent Weight : 0,000 g/eq.
Density : 0,000 g/cm3
Volume (V) : 0,001 cm³
Record Ece
Record Power
Cycle Definition : Charge/Discharge alternance
Ns                  0                   1
Set I/C             I                   I
Is                  0,000               20,000
unit Is             mA                  µA
vs.                 <None>              <None>
N                   1,00                1,00
I sign              > 0                 > 0
t1 (h:m:s)          0:00:0,0000         20:00:0,0000
I Range             100 µA              100 µA
Bandwidth           5                   5
dE1 (mV)            0,00                0,00
dt1 (s)             0,0000              5,0000
EM (V)              0,000               1,600
tM (h:m:s)          0:00:0,0000         10:00:0,0000
Im                  0,000               10,000
unit Im             mA                  µA
dI/dt               0,000               0,000
dunit dI/dt         mA/s                mA/s
E range min (V)     0,000               0,000
E range max (V)     5,000               5,000
dq                  0,000               1,000
unit dq             mA.h                mA.h
dtq (s)             0,0000              120,0000
dQM                 0,000               0,000
unit dQM            mA.h                mA.h
dxM                 0,000               0,000
delta SoC (%)       pass                pass
tR (h:m:s)          0:00:10,0000        0:01:0,0000
dER/dt (mV/h)       0,0                 0,1
dER (mV)            0,00                0,00
dtR (s)             1,0000              120,0000
EL (V)              pass                pass
goto Ns'            0                   0
nc cycles           0                   0

Number of loops : 1
Loop 0 from point number 0 to 3608

mode	ox/red	error	control changes	Ns changes	counter inc.	Ns	time/s	dq/mA.h	(Q-Qo)/mA.h	control/V/mA	Ewe/V	I Range	Q charge/discharge/mA.h	half cycle	Ece/V	P/W	Energy charge/W.h	Energy discharge/W.h	Capacitance charge/µF	Capacitance discharge/µF	<I>/mA	Q discharge/mA.h	Q charge/mA.h	Capacity/mA.h	Efficiency/%	control/V	control/mA	cycle number	 Ecell/V
3	1	0	0	0	0	0	3,216094052388147E+004	0,000000000000000E+000	0,000000000000000E+000	0,0000000E+000	1,0514146E+001	14	0,000000000000000E+000	0	1,3589114E+001	0,0000000E+000	0,000000000000000E+000	0,000000000000000E+000	0,000000000000000E+000	0,000000000000000E+000	0,000000000000000E+000	0,000000000000000E+000	0,000000000000000E+000	0,000000000000000E+000	0,0000000E+000	0,0000000E+000	0,0000000E+000	0,000000000000000E+000	-3,0749683E+000
1	1	0	1	0	0	1	3,227594072248915E+004	2,785522618217187E-005	5,849638017818539E-004	2,0000001E-002	1,3576816E+001	13	5,849638017818539E-004	0	1,2097151E+001	2,7229340E-004	7,941764519746461E-006	0,000000000000000E+000	6,875928048216201E+002	0,000000000000000E+000	2,005576309398275E-002	0,000000000000000E+000	5,849638017818539E-004	5,849638017818539E-004	0,0000000E+000	0,0000000E+000	2,0000001E-002	0,000000000000000E+000	1,4796648E+000
1	1	0	1	0	0	1	3,243594072055200E+004	2,785576665463547E-005	1,476341889488200E-003	2,0000001E-002	1,3577416E+001	13	1,476341889488200E-003	0	1,2090623E+001	2,7231075E-004	2,004392293337520E-005	0,000000000000000E+000	1,735018400335710E+003	0,000000000000000E+000	2,005615223416125E-002	0,000000000000000E+000	1,476341889488200E-003	1,476341889488200E-003	0,0000000E+000	0,0000000E+000	2,0000001E-002	0,000000000000000E+000	1,4867935E+000
1	1	0	1	0	0	1	3,259594071861485E+004	2,785575957078901E-005	2,367718158695123E-003	2,0000001E-002	1,3575933E+001	13	2,367718158695122E-003	0	1,2084037E+001	2,7228091E-004	3,214562781866920E-005	0,000000000000000E+000	2,783924448772215E+003	0,000000000000000E+000	2,005614713379174E-002	0,000000000000000E+000	2,367718158695122E-003	2,367718158695122E-003	0,0000000E+000	0,0000000E+000	2,0000001E-002	0,000000000000000E+000	1,4918966E+000
1	1	0	1	0	0	1	3,275594071667769E+004	2,785552633491655E-005	3,259105645072957E-003	2,0000001E-002	1,3577016E+001	13	3,259105645072956E-003	0	1,2081020E+001	2,7230036E-004	4,424780997042267E-005	0,000000000000000E+000	3,830649104945639E+003	0,000000000000000E+000	2,005597920396154E-002	0,000000000000000E+000	3,259105645072956E-003	3,259105645072956E-003	0,0000000E+000	0,0000000E+000	2,0000001E-002	0,000000000000000E+000	1,4959955E+000
1	1	0	1	0	0	1	3,291594071680726E+004	2,785516597723795E-005	4,150476149931447E-003	2,0000001E-002	1,3577538E+001	13	4,150476149931444E-003	0	1,2077641E+001	2,7230728E-004	5,634939066515245E-005	0,000000000000000E+000	4,877506918408807E+003	0,000000000000000E+000	2,005571946625464E-002	0,000000000000000E+000	4,150476149931444E-003	4,150476149931444E-003	0,0000000E+000	0,0000000E+000	2,0000001E-002	0,000000000000000E+000	1,4998960E+000
1	1	0	1	0	0	1	3,307594071710529E+004	2,785573748136974E-005	5,041859267736371E-003	2,0000001E-002	1,3578058E+001	13	5,041859267736366E-003	0	1,2075027E+001	2,7232332E-004	6,845114932016776E-005	0,000000000000000E+000	5,924024920961153E+003	0,000000000000000E+000	2,005613094922876E-002	0,000000000000000E+000	5,041859267736366E-003	5,041859267736366E-003	0,0000000E+000	0,0000000E+000	2,0000001E-002	0,000000000000000E+000	1,5030317E+000
1	1	0	1	0	0	1	3,323594071740331E+004	2,785659395044463E-005	5,933239669482948E-003	2,0000001E-002	1,3577016E+001	13	5,933239669482946E-003	0	1,2071151E+001	2,7231078E-004	8,055304202230386E-005	0,000000000000000E+000	6,973741174574299E+003	0,000000000000000E+000	2,005674760696153E-002	0,000000000000000E+000	5,933239669482946E-003	5,933239669482946E-003	0,0000000E+000	0,0000000E+000	2,0000001E-002	0,000000000000000E+000	1,5058651E+000
1	1	0	1	0	0	1	3,339594071770133E+004	2,785569374201198E-005	6,824614092333967E-003	2,0000001E-002	1,3576655E+001	13	6,824614092333965E-003	0	1,2068020E+001	2,7229474E-004	9,265454085459139E-005	0,000000000000000E+000	8,022378522461629E+003	0,000000000000000E+000	2,005609945689123E-002	0,000000000000000E+000	6,824614092333965E-003	6,824614092333965E-003	0,0000000E+000	0,0000000E+000	2,0000001E-002	0,000000000000000E+000	1,5086355E+000
1	1	0	1	0	0	1	3,355594071799936E+004	2,785576099240117E-005	7,716006538551611E-003	2,0000001E-002	1,3576494E+001	13	7,716006538551611E-003	0	1,2065329E+001	2,7229218E-004	1,047562530824421E-004	0,000000000000000E+000	9,070693540013752E+003	0,000000000000000E+000	2,005614787717136E-002	0,000000000000000E+000	7,716006538551611E-003	7,716006538551611E-003	0,0000000E+000	0,0000000E+000	2,0000001E-002	0,000000000000000E+000	1,5111656E+000
1	1	0	1	0	0	1	3,371594071829738E+004	2,785551852691505E-005	8,607385739376354E-003	2,0000001E-002	1,3576936E+001	13	8,607385739376356E-003	0	1,2063324E+001	2,7229867E-004	1,168583987173694E-004	0,000000000000000E+000	1,011711201275772E+004	0,000000000000000E+000	2,005597330202167E-002	0,000000000000000E+000	8,607385739376356E-003	8,607385739376356E-003	0,0000000E+000	0,0000000E+000	2,0000001E-002	0,000000000000000E+000	1,5136118E+000
1	1	0	1	0	0	1	3,387594071859540E+004	2,785578921830489E-005	9,498781502162934E-003	2,0000001E-002	1,3576454E+001	13	9,498781502162936E-003	0	1,2060480E+001	2,7229165E-004	1,289602821811238E-004	0,000000000000000E+000	1,116661352476834E+004	0,000000000000000E+000	2,005616819982199E-002	0,000000000000000E+000	9,498781502162936E-003	9,498781502162936E-003	0,0000000E+000	0,0000000E+000	2,0000001E-002	0,000000000000000E+000	1,5159740E+000
1	1	0	1	0	0	1	3,403594071889343E+004	2,785558694787324E-005	1,039016183204007E-002	2,0000001E-002	1,3576214E+001	13	1,039016183204007E-002	0	1,2058342E+001	2,7228484E-004	1,410617237579437E-004	0,000000000000000E+000	1,221546444169268E+004	0,000000000000000E+000	2,005602256511148E-002	0,000000000000000E+000	1,039016183204007E-002	1,039016183204007E-002	0,0000000E+000	0,0000000E+000	2,0000001E-002	0,000000000000000E+000	1,5178719E+000
1	1	0	1	0	0	1	3,419594071919145E+004	2,785540920061370E-005	1,128154498895444E-002	2,0000001E-002	1,3576174E+001	13	1,128154498895444E-002	0	1,2056108E+001	2,7228231E-004	1,531636427346216E-004	0,000000000000000E+000	1,326361577118018E+004	0,000000000000000E+000	2,005589458708485E-002	0,000000000000000E+000	1,128154498895444E-002	1,128154498895444E-002	0,0000000E+000	0,0000000E+000	2,0000001E-002	0,000000000000000E+000	1,5200653E+000
1	1	0	1	0	0	1	3,435594071948947E+004	2,785519059592237E-005	1,217292185875297E-002	2,0000001E-002	1,3577336E+001	13	1,217292185875297E-002	0	1,2055440E+001	2,7230350E-004	1,652652875272291E-004	0,000000000000000E+000	1,430616844131097E+004	0,000000000000000E+000	2,005573719170738E-002	0,000000000000000E+000	1,217292185875297E-002	1,217292185875297E-002	0,0000000E+000	0,0000000E+000	2,0000001E-002	0,000000000000000E+000	1,5218964E+000
1	1	0	1	0	0	1	3,451594071978750E+004	2,785533282150411E-005	1,306428959707150E-002	2,0000001E-002	1,3577136E+001	13	1,306428959707150E-002	0	1,2053264E+001	2,7230085E-004	1,773669949420133E-004	0,000000000000000E+000	1,535474802515611E+004	0,000000000000000E+000	2,005583959412605E-002	0,000000000000000E+000	1,306428959707150E-002	1,306428959707150E-002	0,0000000E+000	0,0000000E+000	2,0000001E-002	0,000000000000000E+000	1,5238724E+000
1	1	0	1	0	0	1	3,467594072008552E+004	2,785528351231995E-005	1,395566340609702E-002	2,0000001E-002	1,3576414E+001	13	1,395566340609702E-002	0	1,2050591E+001	2,7228589E-004	1,894689309890639E-004	0,000000000000000E+000	1,640626621942420E+004	0,000000000000000E+000	2,005580409151352E-002	0,000000000000000E+000	1,395566340609702E-002	1,395566340609702E-002	0,0000000E+000	0,0000000E+000	2,0000001E-002	0,000000000000000E+000	1,5258226E+000
1	1	0	1	0	0	1	3,483594072038354E+004	2,785617198805428E-005	1,484703692535290E-002	2,0000001E-002	1,3577497E+001	13	1,484703692535290E-002	0	1,2050324E+001	2,7231631E-004	2,015709022307426E-004	0,000000000000000E+000	1,744799140507137E+004	0,000000000000000E+000	2,005644379404104E-002	0,000000000000000E+000	1,484703692535290E-002	1,484703692535290E-002	0,0000000E+000	0,0000000E+000	2,0000001E-002	0,000000000000000E+000	1,5271730E+000
1	1	0	1	0	0	1	3,499594072068157E+004	2,785524675312141E-005	1,573841011532603E-002	2,0000001E-002	1,3576615E+001	13	1,573841011532602E-002	0	1,2047651E+001	2,7228959E-004	2,136726791959039E-004	0,000000000000000E+000	1,850084604610230E+004	0,000000000000000E+000	2,005577762489062E-002	0,000000000000000E+000	1,573841011532602E-002	1,573841011532602E-002	0,0000000E+000	0,0000000E+000	2,0000001E-002	0,000000000000000E+000	1,5289640E+000
1	1	0	1	0	0	1	3,515594072097959E+004	2,785560176024834E-005	1,662979830453110E-002	2,0000001E-002	1,3576174E+001	13	1,662979830453111E-002	0	1,2045915E+001	2,7228420E-004	2,257743962177379E-004	0,000000000000000E+000	1,955151136475382E+004	0,000000000000000E+000	2,005603323002153E-002	0,000000000000000E+000	1,662979830453111E-002	1,662979830453111E-002	0,0000000E+000	0,0000000E+000	2,0000001E-002	0,000000000000000E+000	1,5302591E+000
1	1	0	1	0	0	1	3,531594072127761E+004	2,785507509391755E-005	1,752117774933504E-002	2,0000001E-002	1,3576294E+001	13	1,752117774933505E-002	0	1,2044044E+001	2,7228144E-004	2,378758303495570E-004	0,000000000000000E+000	2,059869018665273E+004	0,000000000000000E+000	2,005565403026407E-002	0,000000000000000E+000	1,752117774933505E-002	1,752117774933505E-002	0,0000000E+000	0,0000000E+000	2,0000001E-002	0,000000000000000E+000	1,5322504E+000
1	1	0	1	0	0	1	3,547594072157564E+004	2,785550149902702E-005	1,841255609079461E-002	2,0000001E-002	1,3575452E+001	13	1,841255609079462E-002	0	1,2041829E+001	2,7226872E-004	2,499772595944226E-004	0,000000000000000E+000	2,165258942822015E+004	0,000000000000000E+000	2,005596104194231E-002	0,000000000000000E+000	1,841255609079462E-002	1,841255609079462E-002	0,0000000E+000	0,0000000E+000	2,0000001E-002	0,000000000000000E+000	1,5336227E+000
1	1	0	1	0	0	1	3,563594072187366E+004	2,785628673724002E-005	1,930394002878262E-002	2,0000001E-002	1,3575372E+001	13	1,930394002878263E-002	0	1,2040512E+001	2,7227480E-004	2,620786016807272E-004	0,000000000000000E+000	2,270142308196159E+004	0,000000000000000E+000	2,005652641345463E-002	0,000000000000000E+000	1,930394002878263E-002	1,930394002878263E-002	0,0000000E+000	0,0000000E+000	2,0000001E-002	0,000000000000000E+000	1,5348597E+000
1	1	0	1	0	0	1	3,579594072217168E+004	2,785506598113312E-005	2,019531370362629E-002	2,0000001E-002	1,3577778E+001	13	2,019531370362631E-002	0	1,2041294E+001	2,7231112E-004	2,741803327586386E-004	0,000000000000000E+000	2,373102548289053E+004	0,000000000000000E+000	2,005564746905929E-002	0,000000000000000E+000	2,019531370362631E-002	2,019531370362631E-002	0,0000000E+000	0,0000000E+000	2,0000001E-002	0,000000000000000E+000	1,5364838E+000
1	1	0	1	0	0	1	3,595594072246971E+004	2,785523594232897E-005	2,108668999297762E-002	2,0000001E-002	1,3575252E+001	13	2,108668999297763E-002	0	1,2037515E+001	2,7226211E-004	2,862819350828785E-004	0,000000000000000E+000	2,479890951712144E+004	0,000000000000000E+000	2,005576984112007E-002	0,000000000000000E+000	2,108668999297763E-002	2,108668999297763E-002	0,0000000E+000	0,0000000E+000	2,0000001E-002	0,000000000000000E+000	1,5377369E+000
1	1	0	1	0	0	1	3,611594072276773E+004	2,785547978886300E-005	2,197806060183928E-002	2,0000001E-002	1,3576655E+001	13	2,197806060183928E-002	0	1,2037534E+001	2,7229267E-004	2,983835742260201E-004	0,000000000000000E+000	2,583535405109723E+004	0,000000000000000E+000	2,005594541062425E-002	0,000000000000000E+000	2,197806060183928E-002	2,197806060183928E-002	0,0000000E+000	0,0000000E+000	2,0000001E-002	0,000000000000000E+000	1,5391216E+000
1	1	0	1	0	0	1	3,627594072306575E+004	2,785522464611050E-005	2,286944724488155E-002	2,0000001E-002	1,3575492E+001	13	2,286944724488155E-002	0	1,2035205E+001	2,7226683E-004	3,104848714816513E-004	0,000000000000000E+000	2,689340199613343E+004	0,000000000000000E+000	2,005576170784279E-002	0,000000000000000E+000	2,286944724488155E-002	2,286944724488155E-002	0,0000000E+000	0,0000000E+000	2,0000001E-002	0,000000000000000E+000	1,5402870E+000
1	1	0	1	0	0	1	3,643594072336378E+004	2,785540430910058E-005	2,376082033522158E-002	2,0000001E-002	1,3574891E+001	13	2,376082033522159E-002	0	1,2033200E+001	2,7225656E-004	3,225864192726014E-004	0,000000000000000E+000	2,794709997737012E+004	0,000000000000000E+000	2,005589106519541E-002	0,000000000000000E+000	2,376082033522159E-002	2,376082033522159E-002	0,0000000E+000	0,0000000E+000	2,0000001E-002	0,000000000000000E+000	1,5416908E+000
1	1	0	1	0	0	1	3,659594072366180E+004	2,785489195605947E-005	2,465219176984723E-002	2,0000001E-002	1,3576936E+001	13	2,465219176984724E-002	0	1,2034117E+001	2,7229253E-004	3,346878439856983E-004	0,000000000000000E+000	2,897615989888230E+004	0,000000000000000E+000	2,005552217100650E-002	0,000000000000000E+000	2,465219176984724E-002	2,465219176984724E-002	0,0000000E+000	0,0000000E+000	2,0000001E-002	0,000000000000000E+000	1,5428190E+000
1	1	0	1	0	0	1	3,675594072395982E+004	2,785491174914771E-005	2,554355797970502E-002	2,0000001E-002	1,3576695E+001	13	2,554355797970503E-002	0	1,2032418E+001	2,7228790E-004	3,467893341491758E-004	0,000000000000000E+000	3,002622683898372E+004	0,000000000000000E+000	2,005553642203000E-002	0,000000000000000E+000	2,554355797970503E-002	2,554355797970503E-002	0,0000000E+000	0,0000000E+000	2,0000001E-002	0,000000000000000E+000	1,5442772E+000
1	1	0	1	0	0	1	3,691594072425785E+004	2,785592916152543E-005	2,643491649056961E-002	2,0000001E-002	1,3577176E+001	13	2,643491649056962E-002	0	1,2031883E+001	2,7230749E-004	3,588904338217208E-004	0,000000000000000E+000	3,106913475177809E+004	0,000000000000000E+000	2,005626895894060E-002	0,000000000000000E+000	2,643491649056962E-002	2,643491649056962E-002	0,0000000E+000	0,0000000E+000	2,0000001E-002	0,000000000000000E+000	1,5452929E+000
1	1	0	1	0	0	1	3,707594072455587E+004	2,785520184184942E-005	2,732628682089152E-002	2,0000001E-002	1,3578058E+001	13	2,732628682089153E-002	0	1,2031521E+001	2,7231808E-004	3,709924153993969E-004	0,000000000000000E+000	3,210752135828128E+004	0,000000000000000E+000	2,005574528877485E-002	0,000000000000000E+000	2,732628682089153E-002	2,732628682089153E-002	0,0000000E+000	0,0000000E+000	2,0000001E-002	0,000000000000000E+000	1,5465374E+000
1	1	0	1	0	0	1	3,723594072485389E+004	2,785429303379108E-005	2,821765594350360E-002	2,0000001E-002	1,3577416E+001	13	2,821765594350362E-002	0	1,2029879E+001	2,7229631E-004	3,830939661976527E-004	0,000000000000000E+000	3,316179851354979E+004	0,000000000000000E+000	2,005509094697406E-002	0,000000000000000E+000	2,821765594350362E-002	2,821765594350362E-002	0,0000000E+000	0,0000000E+000	2,0000001E-002	0,000000000000000E+000	1,5475378E+000
1	1	0	1	0	0	1	3,739594072515192E+004	2,785563279709055E-005	2,910900984492143E-002	2,0000001E-002	1,3578098E+001	13	2,910900984492144E-002	0	1,2029421E+001	2,7232309E-004	3,951956242403981E-004	0,000000000000000E+000	3,420171732073556E+004	0,000000000000000E+000	2,005605557654788E-002	0,000000000000000E+000	2,910900984492144E-002	2,910900984492144E-002	0,0000000E+000	0,0000000E+000	2,0000001E-002	0,000000000000000E+000	1,5486774E+000
1	1	0	1	0	0	1	3,755594072544994E+004	2,785502163248344E-005	3,000039468621566E-002	2,0000001E-002	1,3575412E+001	13	3,000039467318948E-002	0	1,2025621E+001	2,7226325E-004	4,072975670017309E-004	0,000000000000000E+000	3,527998636791109E+004	0,000000000000000E+000	2,005561553803158E-002	0,000000000000000E+000	3,000039467318948E-002	3,000039467318948E-002	0,0000000E+000	0,0000000E+000	2,0000001E-002	0,000000000000000E+000	1,5497904E+000
1	1	0	1	0	0	1	3,771594072574796E+004	2,785625861957669E-005	3,089177482478652E-002	2,0000001E-002	1,3576174E+001	13	3,089177479841283E-002	0	1,2025526E+001	2,7229061E-004	4,193990639516385E-004	0,000000000000000E+000	3,631919491675481E+004	0,000000000000000E+000	2,005650616873706E-002	0,000000000000000E+000	3,089177479841283E-002	3,089177479841283E-002	0,0000000E+000	0,0000000E+000	2,0000001E-002	0,000000000000000E+000	1,5506477E+000
1	1	0	1	0	0	1	3,787594072604598E+004	2,785624921963447E-005	3,178315464504291E-002	2,0000001E-002	1,3577256E+001	13	3,178315460536239E-002	0	1,2025259E+001	2,7231223E-004	4,315005141024166E-004	0,000000000000000E+000	3,735397796587348E+004	0,000000000000000E+000	2,005649940077868E-002	0,000000000000000E+000	3,178315460536239E-002	3,178315460536239E-002	0,0000000E+000	0,0000000E+000	2,0000001E-002	0,000000000000000E+000	1,5519972E+000
1	1	0	1	0	0	1	3,803594072634401E+004	2,785632363551607E-005	3,267455926779647E-002	2,0000001E-002	1,3575452E+001	13	3,267455921481761E-002	0	1,2022453E+001	2,7227678E-004	4,436023109908670E-004	0,000000000000000E+000	3,842425852976616E+004	0,000000000000000E+000	2,005655298021333E-002	0,000000000000000E+000	3,267455921481761E-002	3,267455921481761E-002	0,0000000E+000	0,0000000E+000	2,0000001E-002	0,000000000000000E+000	1,5529985E+000
1	1	0	1	0	0	1	3,819594072664203E+004	2,785601880763554E-005	3,356595385039515E-002	2,0000001E-002	1,3576976E+001	13	3,356595378412394E-002	0	1,2023083E+001	2,7230434E-004	4,557040977872635E-004	0,000000000000000E+000	3,945287030446086E+004	0,000000000000000E+000	2,005633350413976E-002	0,000000000000000E+000	3,356595378412394E-002	3,356595378412394E-002	0,0000000E+000	0,0000000E+000	2,0000001E-002	0,000000000000000E+000	1,5538931E+000
1	1	0	1	0	0	1	3,835594072694005E+004	2,785560731082741E-005	3,445735761453481E-002	2,0000001E-002	1,3575974E+001	13	3,445735753498035E-002	0	1,2020792E+001	2,7228022E-004	4,678065041054556E-004	0,000000000000000E+000	4,051386979169620E+004	0,000000000000000E+000	2,005603722643845E-002	0,000000000000000E+000	3,445735753498035E-002	3,445735753498035E-002	0,0000000E+000	0,0000000E+000	2,0000001E-002	0,000000000000000E+000	1,5551815E+000
1	1	0	1	0	0	1	3,851594072723808E+004	2,785691341499074E-005	3,534875146058564E-002	2,0000001E-002	1,3577016E+001	13	3,534875136775663E-002	0	1,2021270E+001	2,7231392E-004	4,799086574148514E-004	0,000000000000000E+000	4,154779793424331E+004	0,000000000000000E+000	2,005697762143430E-002	0,000000000000000E+000	3,534875136775663E-002	3,534875136775663E-002	0,0000000E+000	0,0000000E+000	2,0000001E-002	0,000000000000000E+000	1,5557461E+000
1	1	0	1	0	0	1	3,867594072753610E+004	2,785726006742981E-005	3,624018765065447E-002	2,0000001E-002	1,3576334E+001	13	3,624018754453557E-002	0	1,2019475E+001	2,7230362E-004	4,920114168856107E-004	0,000000000000000E+000	4,260504868856541E+004	0,000000000000000E+000	2,005722721118997E-002	0,000000000000000E+000	3,624018754453557E-002	3,624018754453557E-002	0,0000000E+000	0,0000000E+000	2,0000001E-002	0,000000000000000E+000	1,5568590E+000
1	1	0	1	0	0	1	3,883594072783412E+004	2,785658456602444E-005	3,713162096992187E-002	2,0000001E-002	1,3576856E+001	13	3,713162085052615E-002	0	1,2018940E+001	2,7230749E-004	5,041141529759112E-004	0,000000000000000E+000	4,364560909344736E+004	0,000000000000000E+000	2,005674085017901E-002	0,000000000000000E+000	3,713162085052615E-002	3,713162085052615E-002	0,0000000E+000	0,0000000E+000	2,0000001E-002	0,000000000000000E+000	1,5579157E+000
1	1	0	1	0	0	1	3,899594072813215E+004	2,785664675819377E-005	3,802303694009967E-002	2,0000001E-002	1,3576976E+001	13	3,802303680741978E-002	0	1,2018234E+001	2,7231048E-004	5,162165194681130E-004	0,000000000000000E+000	4,469165242235427E+004	0,000000000000000E+000	2,005678562854084E-002	0,000000000000000E+000	3,802303680741978E-002	3,802303680741978E-002	0,0000000E+000	0,0000000E+000	2,0000001E-002	0,000000000000000E+000	1,5587416E+000
1	1	0	1	0	0	1	3,915594072843017E+004	2,785652542610963E-005	3,891446294181701E-002	2,0000001E-002	1,3575974E+001	13	3,891446279589072E-002	0	1,2016439E+001	2,7228921E-004	5,283192075372255E-004	0,000000000000000E+000	4,575439300956315E+004	0,000000000000000E+000	2,005669826944042E-002	0,000000000000000E+000	3,891446279589072E-002	3,891446279589072E-002	0,0000000E+000	0,0000000E+000	2,0000001E-002	0,000000000000000E+000	1,5595341E+000
1	1	0	1	0	0	1	3,931594072872819E+004	2,785753809205360E-005	3,980587833901226E-002	2,0000001E-002	1,3575653E+001	13	3,980587817979868E-002	0	1,2015103E+001	2,7229267E-004	5,404211239747963E-004	0,000000000000000E+000	4,680738960057855E+004	0,000000000000000E+000	2,005742738891872E-002	0,000000000000000E+000	3,980587817979868E-002	3,980587817979868E-002	0,0000000E+000	0,0000000E+000	2,0000001E-002	0,000000000000000E+000	1,5605497E+000
1	1	0	1	0	0	1	3,947594072902622E+004	2,785694716653476E-005	4,069729768097773E-002	2,0000001E-002	1,3576856E+001	13	4,069729750847366E-002	0	1,2015409E+001	2,7231101E-004	5,525232111795083E-004	0,000000000000000E+000	4,783681125488497E+004	0,000000000000000E+000	2,005700192254595E-002	0,000000000000000E+000	4,069729750847366E-002	4,069729750847366E-002	0,0000000E+000	0,0000000E+000	2,0000001E-002	0,000000000000000E+000	1,5614471E+000
1	1	0	1	0	0	1	3,963594072932424E+004	2,785696445684880E-005	4,158873414464202E-002	2,0000001E-002	1,3576134E+001	13	4,158873395882644E-002	0	1,2013691E+001	2,7229672E-004	5,646252069556062E-004	0,000000000000000E+000	4,889615774825995E+004	0,000000000000000E+000	2,005701437157204E-002	0,000000000000000E+000	4,158873395882644E-002	4,158873395882644E-002	0,0000000E+000	0,0000000E+000	2,0000001E-002	0,000000000000000E+000	1,5624428E+000
1	1	0	1	0	0	1	3,979594072962226E+004	2,785649077376972E-005	4,248015106543091E-002	2,0000001E-002	1,3574891E+001	13	4,248015086633072E-002	0	1,2011629E+001	2,7226715E-004	5,767271709109134E-004	0,000000000000000E+000	4,996447961669413E+004	0,000000000000000E+000	2,005667331975573E-002	0,000000000000000E+000	4,248015086633072E-002	4,248015086633072E-002	0,0000000E+000	0,0000000E+000	2,0000001E-002	0,000000000000000E+000	1,5632620E+000
1	1	0	1	0	0	1	3,995594072992029E+004	2,785532513291886E-005	4,337155608155961E-002	2,0000001E-002	1,3574771E+001	13	4,337155586921384E-002	0	1,2010694E+001	2,7225335E-004	5,888283388267031E-004	0,000000000000000E+000	5,101493885629205E+004	0,000000000000000E+000	2,005583405834467E-002	0,000000000000000E+000	4,337155586921384E-002	4,337155586921384E-002	0,0000000E+000	0,0000000E+000	2,0000001E-002	0,000000000000000E+000	1,5640774E+000
1	1	0	1	0	0	1	4,011594073021831E+004	2,785700326433612E-005	4,426295089939505E-002	2,0000001E-002	1,3575933E+001	13	4,426295067378187E-002	0	1,2011286E+001	2,7229308E-004	6,009296910155593E-004	0,000000000000000E+000	5,204365650658801E+004	0,000000000000000E+000	2,005704231296285E-002	0,000000000000000E+000	4,426295067378187E-002	4,426295067378187E-002	0,0000000E+000	0,0000000E+000	2,0000001E-002	0,000000000000000E+000	1,5646477E+000
1	1	0	1	0	0	1	4,027594073051633E+004	2,785624136951648E-005	4,515435432067979E-002	2,0000001E-002	1,3576134E+001	13	4,515435408182297E-002	0	1,2010274E+001	2,7228965E-004	6,130310909127544E-004	0,000000000000000E+000	5,308828160990509E+004	0,000000000000000E+000	2,005649374869374E-002	0,000000000000000E+000	4,515435408182297E-002	4,515435408182297E-002	0,0000000E+000	0,0000000E+000	2,0000001E-002	0,000000000000000E+000	1,5658598E+000
1	1	0	1	0	0	1	4,043594073081436E+004	2,785592080704454E-005	4,604575689990664E-002	2,0000001E-002	1,3575091E+001	13	4,604575664774929E-002	0	1,2008708E+001	2,7226561E-004	6,251324457907235E-004	0,000000000000000E+000	5,415474510851184E+004	0,000000000000000E+000	2,005626294371437E-002	0,000000000000000E+000	4,604575664774929E-002	4,604575664774929E-002	0,0000000E+000	0,0000000E+000	2,0000001E-002	0,000000000000000E+000	1,5663834E+000
1	1	0	1	0	0	1	4,059594073111238E+004	2,785591099049068E-005	4,693715680387026E-002	2,0000001E-002	1,3574771E+001	13	4,693715653842469E-002	0	1,2007658E+001	2,7225906E-004	6,372340112250746E-004	0,000000000000000E+000	5,520890645741429E+004	0,000000000000000E+000	2,005625587579560E-002	0,000000000000000E+000	4,693715653842469E-002	4,693715653842469E-002	0,0000000E+000	0,0000000E+000	2,0000001E-002	0,000000000000000E+000	1,5671129E+000
1	1	0	1	0	0	1	4,075594073141040E+004	2,785616165627208E-005	4,782856185206067E-002	2,0000001E-002	1,3575813E+001	13	4,782856157340119E-002	0	1,2007582E+001	2,7228243E-004	6,493356397465382E-004	0,000000000000000E+000	5,623825085773247E+004	0,000000000000000E+000	2,005643635515788E-002	0,000000000000000E+000	4,782856157340119E-002	4,782856157340119E-002	0,0000000E+000	0,0000000E+000	2,0000001E-002	0,000000000000000E+000	1,5682316E+000
1	1	0	1	0	0	1	4,091594073170843E+004	2,785691717784438E-005	4,871995605980957E-002	2,0000001E-002	1,3575011E+001	13	4,871995576786487E-002	0	1,2006112E+001	2,7227373E-004	6,614372093250905E-004	0,000000000000000E+000	5,730138954722027E+004	0,000000000000000E+000	2,005698033068892E-002	0,000000000000000E+000	4,871995576786487E-002	4,871995576786487E-002	0,0000000E+000	0,0000000E+000	2,0000001E-002	0,000000000000000E+000	1,5688992E+000
1	1	0	1	0	0	1	4,107594073200645E+004	2,785600940282974E-005	4,961135171724794E-002	2,0000001E-002	1,3576776E+001	13	4,961135141197675E-002	0	1,2007048E+001	2,7230024E-004	6,735389024830773E-004	0,000000000000000E+000	5,831618007890445E+004	0,000000000000000E+000	2,005632673267959E-002	0,000000000000000E+000	4,961135141197675E-002	4,961135141197675E-002	0,0000000E+000	0,0000000E+000	2,0000001E-002	0,000000000000000E+000	1,5697279E+000
1	1	0	1	0	0	1	4,123594073230447E+004	2,785605902452436E-005	5,050275245255397E-002	2,0000001E-002	1,3575974E+001	13	5,050275213402045E-002	0	1,2005692E+001	2,7228467E-004	6,856407181625432E-004	0,000000000000000E+000	5,937953663460396E+004	0,000000000000000E+000	2,005636246029965E-002	0,000000000000000E+000	5,050275213402045E-002	5,050275213402045E-002	0,0000000E+000	0,0000000E+000	2,0000001E-002	0,000000000000000E+000	1,5702810E+000
1	1	0	1	0	0	1	4,139594073260250E+004	2,785621605813503E-005	5,139414653282354E-002	2,0000001E-002	1,3576494E+001	13	5,139414620098597E-002	0	1,2005424E+001	2,7229660E-004	6,977420537776680E-004	0,000000000000000E+000	6,041733474571595E+004	0,000000000000000E+000	2,005647552449913E-002	0,000000000000000E+000	5,139414620098597E-002	5,139414620098597E-002	0,0000000E+000	0,0000000E+000	2,0000001E-002	0,000000000000000E+000	1,5710697E+000
1	1	0	1	0	0	1	4,155594073290052E+004	2,785628488763339E-005	5,228554916745983E-002	2,0000001E-002	1,3575452E+001	13	5,228554882235380E-002	0	1,2003726E+001	2,7227640E-004	7,098439421833674E-004	0,000000000000000E+000	6,148616824828520E+004	0,000000000000000E+000	2,005652508173785E-002	0,000000000000000E+000	5,228554882235380E-002	5,228554882235380E-002	0,0000000E+000	0,0000000E+000	2,0000001E-002	0,000000000000000E+000	1,5717258E+000
1	1	0	1	0	0	1	4,171594073319854E+004	2,785673279470454E-005	5,317694898004489E-002	2,0000001E-002	1,3574931E+001	13	5,317694862166233E-002	0	1,2002504E+001	2,7227032E-004	7,219455029238162E-004	0,000000000000000E+000	6,254506496734021E+004	0,000000000000000E+000	2,005684757482848E-002	0,000000000000000E+000	5,317694862166233E-002	5,317694862166233E-002	0,0000000E+000	0,0000000E+000	2,0000001E-002	0,000000000000000E+000	1,5724268E+000
1	1	0	1	0	0	1	4,187594073349657E+004	2,785579926737895E-005	5,406834928633376E-002	2,0000001E-002	1,3576615E+001	13	5,406834891467718E-002	0	1,2003898E+001	2,7229497E-004	7,340467387230606E-004	0,000000000000000E+000	6,355852922292862E+004	0,000000000000000E+000	2,005617543515530E-002	0,000000000000000E+000	5,406834891467718E-002	5,406834891467718E-002	0,0000000E+000	0,0000000E+000	2,0000001E-002	0,000000000000000E+000	1,5727177E+000
1	1	0	1	0	0	1	4,203594073379459E+004	2,785677361064073E-005	5,495975764872071E-002	2,0000001E-002	1,3575212E+001	13	5,495975726382187E-002	0	1,2001111E+001	2,7227635E-004	7,461483127482314E-004	0,000000000000000E+000	6,463602785180493E+004	0,000000000000000E+000	2,005687696230248E-002	0,000000000000000E+000	5,495975726382187E-002	5,495975726382187E-002	0,0000000E+000	0,0000000E+000	2,0000001E-002	0,000000000000000E+000	1,5741005E+000
1	1	0	1	0	0	1	4,219594073409261E+004	2,785605524407907E-005	5,585115841805356E-002	2,0000001E-002	1,3577456E+001	13	5,585115801983782E-002	0	1,2002619E+001	2,7231436E-004	7,582500686119317E-004	0,000000000000000E+000	6,563623269239948E+004	0,000000000000000E+000	2,005635973837904E-002	0,000000000000000E+000	5,585115801983782E-002	5,585115801983782E-002	0,0000000E+000	0,0000000E+000	2,0000001E-002	0,000000000000000E+000	1,5748377E+000
1	1	0	1	0	0	1	4,235594073439064E+004	2,785577763875739E-005	5,674256074781674E-002	2,0000001E-002	1,3576174E+001	13	5,674256033629128E-002	0	1,2000767E+001	2,7228592E-004	7,703517350126729E-004	0,000000000000000E+000	6,671174195648241E+004	0,000000000000000E+000	2,005615986254781E-002	0,000000000000000E+000	5,674256033629128E-002	5,674256033629128E-002	0,0000000E+000	0,0000000E+000	2,0000001E-002	0,000000000000000E+000	1,5754070E+000
1	1	0	1	0	0	1	4,251594073468866E+004	2,785688974211613E-005	5,763395581066360E-002	2,0000001E-002	1,3575813E+001	13	5,763395538583190E-002	0	1,1999831E+001	2,7228956E-004	7,824534155829242E-004	0,000000000000000E+000	6,776772569121789E+004	0,000000000000000E+000	2,005696057696462E-002	0,000000000000000E+000	5,763395538583190E-002	5,763395538583190E-002	0,0000000E+000	0,0000000E+000	2,0000001E-002	0,000000000000000E+000	1,5759821E+000
1	1	0	1	0	0	1	4,267594073498668E+004	2,785608386041390E-005	5,852534640955728E-002	2,0000001E-002	1,3576374E+001	13	5,852534596918275E-002	0	1,2000137E+001	2,7229291E-004	7,945548836465180E-004	0,000000000000000E+000	6,880324767926990E+004	0,000000000000000E+000	2,005638034214009E-002	0,000000000000000E+000	5,852534596918275E-002	5,852534596918275E-002	0,0000000E+000	0,0000000E+000	2,0000001E-002	0,000000000000000E+000	1,5762367E+000
1	1	0	1	0	0	1	4,283594073528470E+004	2,785687570956846E-005	5,941675939756611E-002	2,0000001E-002	1,3575572E+001	13	5,941675893660615E-002	0	1,1998285E+001	2,7228458E-004	8,066569091686663E-004	0,000000000000000E+000	6,986950551887759E+004	0,000000000000000E+000	2,005695047353031E-002	0,000000000000000E+000	5,941675893660615E-002	5,941675893660615E-002	0,0000000E+000	0,0000000E+000	2,0000001E-002	0,000000000000000E+000	1,5772867E+000
1	1	0	1	0	0	1	4,299594073558273E+004	2,785646708878792E-005	6,030816339717143E-002	2,0000001E-002	1,3576174E+001	13	6,030816291551799E-002	0	1,1998266E+001	2,7229264E-004	8,187591610467565E-004	0,000000000000000E+000	7,090379035498595E+004	0,000000000000000E+000	2,005665626656887E-002	0,000000000000000E+000	6,030816291551799E-002	6,030816291551799E-002	0,0000000E+000	0,0000000E+000	2,0000001E-002	0,000000000000000E+000	1,5779076E+000
1	1	0	1	0	0	1	4,315594073588075E+004	2,785635250041054E-005	6,119957822275803E-002	2,0000001E-002	1,3576575E+001	13	6,119957772044444E-002	0	1,1998190E+001	2,7229957E-004	8,308610316345762E-004	0,000000000000000E+000	7,194238592797496E+004	0,000000000000000E+000	2,005657376293731E-002	0,000000000000000E+000	6,119957772044444E-002	6,119957772044444E-002	0,0000000E+000	0,0000000E+000	2,0000001E-002	0,000000000000000E+000	1,5783854E+000
1	1	0	1	0	0	1	4,331594073617877E+004	2,785759970111151E-005	6,209098145369875E-002	2,0000001E-002	1,3576214E+001	13	6,209098093069500E-002	0	1,1997197E+001	2,7230452E-004	8,429627716145886E-004	0,000000000000000E+000	7,299887932157451E+004	0,000000000000000E+000	2,005747174744034E-002	0,000000000000000E+000	6,209098093069500E-002	6,209098093069500E-002	0,0000000E+000	0,0000000E+000	2,0000001E-002	0,000000000000000E+000	1,5790167E+000
1	1	0	1	0	0	1	4,347594073647680E+004	2,785685771931377E-005	6,298239634574598E-002	2,0000001E-002	1,3575091E+001	13	6,298239580202590E-002	0	1,1995116E+001	2,7227474E-004	8,550647381023218E-004	0,000000000000000E+000	7,407404806212122E+004	0,000000000000000E+000	2,005693752054696E-002	0,000000000000000E+000	6,298239580202590E-002	6,298239580202590E-002	0,0000000E+000	0,0000000E+000	2,0000001E-002	0,000000000000000E+000	1,5799751E+000
1	1	0	1	0	0	1	4,363594073677482E+004	2,785557737170408E-005	6,387380001351672E-002	2,0000001E-002	1,3577376E+001	13	6,387379944917984E-002	0	1,1997045E+001	2,7230807E-004	8,671665353602670E-004	0,000000000000000E+000	7,506639703626788E+004	0,000000000000000E+000	2,005601567026970E-002	0,000000000000000E+000	6,387379944917984E-002	6,387379944917984E-002	0,0000000E+000	0,0000000E+000	2,0000001E-002	0,000000000000000E+000	1,5803318E+000
1	1	0	1	0	0	1	4,379594073707284E+004	2,785587029779951E-005	6,476518622983268E-002	2,0000001E-002	1,3575372E+001	13	6,476518564488387E-002	0	1,1994620E+001	2,7227073E-004	8,792683426021158E-004	0,000000000000000E+000	7,616382345335194E+004	0,000000000000000E+000	2,005622657705801E-002	0,000000000000000E+000	6,476518564488387E-002	6,476518564488387E-002	0,0000000E+000	0,0000000E+000	2,0000001E-002	0,000000000000000E+000	1,5807514E+000
1	1	0	1	0	0	1	4,395594073737087E+004	2,785557693067110E-005	6,565658606071646E-002	2,0000001E-002	1,3576816E+001	13	6,565658545514037E-002	0	1,1995173E+001	2,7229681E-004	8,913699336755861E-004	0,000000000000000E+000	7,717570832689907E+004	0,000000000000000E+000	2,005601535272596E-002	0,000000000000000E+000	6,565658545514037E-002	6,565658545514037E-002	0,0000000E+000	0,0000000E+000	2,0000001E-002	0,000000000000000E+000	1,5816422E+000
1	1	0	1	0	0	1	4,411594073766889E+004	2,785575315894352E-005	6,654797408753738E-002	2,0000001E-002	1,3575813E+001	13	6,654797346128832E-002	0	1,1993666E+001	2,7227844E-004	9,034714862950639E-004	0,000000000000000E+000	7,824909431671031E+004	0,000000000000000E+000	2,005614223708186E-002	0,000000000000000E+000	6,654797346128832E-002	6,654797346128832E-002	0,0000000E+000	0,0000000E+000	2,0000001E-002	0,000000000000000E+000	1,5821476E+000
1	1	0	1	0	0	1	4,427594073796691E+004	2,785540974367824E-005	6,743934861171162E-002	2,0000001E-002	1,3574891E+001	13	6,743934796483897E-002	0	1,1992253E+001	2,7225661E-004	9,155725439411912E-004	0,000000000000000E+000	7,932109133404760E+004	0,000000000000000E+000	2,005589497809132E-002	0,000000000000000E+000	6,743934796483897E-002	6,743934796483897E-002	0,0000000E+000	0,0000000E+000	2,0000001E-002	0,000000000000000E+000	1,5826378E+000
1	1	0	1	0	0	1	4,443594073826494E+004	2,785556512450178E-005	6,833073118907068E-002	2,0000001E-002	1,3575773E+001	13	6,833073052152246E-002	0	1,1992425E+001	2,7227582E-004	9,276739745749414E-004	0,000000000000000E+000	8,034636443402551E+004	0,000000000000000E+000	2,005600685228406E-002	0,000000000000000E+000	6,833073052152246E-002	6,833073052152246E-002	0,0000000E+000	0,0000000E+000	2,0000001E-002	0,000000000000000E+000	1,5833483E+000
1	1	0	1	0	0	1	4,459594073856296E+004	2,785549712212135E-005	6,922211580036912E-002	2,0000001E-002	1,3576936E+001	13	6,922211511219177E-002	0	1,1993207E+001	2,7229844E-004	9,397753647073751E-004	0,000000000000000E+000	8,136360023302441E+004	0,000000000000000E+000	2,005595789057024E-002	0,000000000000000E+000	6,922211511219177E-002	6,922211511219177E-002	0,0000000E+000	0,0000000E+000	2,0000001E-002	0,000000000000000E+000	1,5837288E+000
1	1	0	1	0	0	1	4,475594073886098E+004	2,785622730840825E-005	7,011350899437670E-002	2,0000001E-002	1,3576896E+001	13	7,011350828553639E-002	0	1,1992520E+001	2,7230481E-004	9,518771247938987E-004	0,000000000000000E+000	8,241242058462319E+004	0,000000000000000E+000	2,005648362469583E-002	0,000000000000000E+000	7,011350828553639E-002	7,011350828553639E-002	0,0000000E+000	0,0000000E+000	2,0000001E-002	0,000000000000000E+000	1,5843754E+000
1	1	0	1	0	0	1	4,491594073915901E+004	2,785717537709408E-005	7,100490078203897E-002	2,0000001E-002	1,3576214E+001	13	7,100490005253562E-002	0	1,1991184E+001	2,7230039E-004	9,639784938967924E-004	0,000000000000000E+000	8,347876056203723E+004	0,000000000000000E+000	2,005716623414836E-002	0,000000000000000E+000	7,100490005253562E-002	7,100490005253562E-002	0,0000000E+000	0,0000000E+000	2,0000001E-002	0,000000000000000E+000	1,5850296E+000
1	1	0	1	0	0	1	4,507594073945703E+004	2,785556080161283E-005	7,189629428556210E-002	2,0000001E-002	1,3575171E+001	13	7,189629353537270E-002	0	1,1989599E+001	2,7226369E-004	9,760801867247719E-004	0,000000000000000E+000	8,455553428822379E+004	0,000000000000000E+000	2,005600373980402E-002	0,000000000000000E+000	7,189629353537270E-002	7,189629353537270E-002	0,0000000E+000	0,0000000E+000	2,0000001E-002	0,000000000000000E+000	1,5855722E+000
1	1	0	1	0	0	1	4,523594073975505E+004	2,785577742682977E-005	7,278768066905335E-002	2,0000001E-002	1,3576294E+001	13	7,278767989817331E-002	0	1,1990497E+001	2,7228834E-004	9,881817951400411E-004	0,000000000000000E+000	8,557249341783680E+004	0,000000000000000E+000	2,005615970995992E-002	0,000000000000000E+000	7,278767989817331E-002	7,278767989817331E-002	0,0000000E+000	0,0000000E+000	2,0000001E-002	0,000000000000000E+000	1,5857973E+000
1	1	0	1	0	0	1	4,539594074005308E+004	2,785588122624904E-005	7,367905294063190E-002	2,0000001E-002	1,3575131E+001	13	7,367905214908395E-002	0	1,1988358E+001	2,7226601E-004	1,000283110407148E-003	0,000000000000000E+000	8,665332850748807E+004	0,000000000000000E+000	2,005623444554166E-002	0,000000000000000E+000	7,367905214908395E-002	7,367905214908395E-002	0,0000000E+000	0,0000000E+000	2,0000001E-002	0,000000000000000E+000	1,5867729E+000
1	1	0	1	0	0	1	4,555594074035110E+004	2,785540769807994E-005	7,457043824052521E-002	2,0000001E-002	1,3577296E+001	13	7,457043742826747E-002	0	1,1990325E+001	2,7230481E-004	1,012384624808685E-003	0,000000000000000E+000	8,763969742592769E+004	0,000000000000000E+000	2,005589350526055E-002	0,000000000000000E+000	7,457043742826747E-002	7,457043742826747E-002	0,0000000E+000	0,0000000E+000	2,0000001E-002	0,000000000000000E+000	1,5869713E+000
1	1	0	1	0	0	1	4,571594074064912E+004	2,785532092023641E-005	7,546182471016029E-002	2,0000001E-002	1,3575452E+001	13	7,546182387725027E-002	0	1,1987633E+001	2,7226697E-004	1,024486455547404E-003	0,000000000000000E+000	8,874074201656619E+004	0,000000000000000E+000	2,005583102521332E-002	0,000000000000000E+000	7,546182387725027E-002	7,546182387725027E-002	0,0000000E+000	0,0000000E+000	2,0000001E-002	0,000000000000000E+000	1,5878191E+000
1	1	0	1	0	0	1	4,587594074094715E+004	2,785497898070349E-005	7,635319502724035E-002	2,0000001E-002	1,3576014E+001	13	7,635319417376438E-002	0	1,1988053E+001	2,7227489E-004	1,036587755415389E-003	0,000000000000000E+000	8,977249336252526E+004	0,000000000000000E+000	2,005558482875007E-002	0,000000000000000E+000	7,635319417376438E-002	7,635319417376438E-002	0,0000000E+000	0,0000000E+000	2,0000001E-002	0,000000000000000E+000	1,5879602E+000
1	1	0	1	0	0	1	4,603594074124517E+004	2,785488385013822E-005	7,724456703234299E-002	2,0000001E-002	1,3574049E+001	13	7,724456615829776E-002	0	1,1985476E+001	2,7223455E-004	1,048688516401361E-003	0,000000000000000E+000	9,087883668446551E+004	0,000000000000000E+000	2,005551633474321E-002	0,000000000000000E+000	7,724456615829776E-002	7,724456615829776E-002	0,0000000E+000	0,0000000E+000	2,0000001E-002	0,000000000000000E+000	1,5885725E+000
1	1	0	1	0	0	1	4,619594074154319E+004	2,785685853122009E-005	7,813595621158513E-002	2,0000001E-002	1,3576014E+001	13	7,813595531694288E-002	0	1,1986641E+001	2,7229328E-004	1,060789145361779E-003	0,000000000000000E+000	9,186858003741583E+004	0,000000000000000E+000	2,005693810511951E-002	0,000000000000000E+000	7,813595531694288E-002	7,813595531694288E-002	0,0000000E+000	0,0000000E+000	2,0000001E-002	0,000000000000000E+000	1,5893726E+000
1	1	0	1	0	0	1	4,635594074184122E+004	2,785579179682666E-005	7,902735733097295E-002	2,0000001E-002	1,3575252E+001	13	7,902735641558403E-002	0	1,1985763E+001	2,7226756E-004	1,072890087116195E-003	0,000000000000000E+000	9,293977678715970E+004	0,000000000000000E+000	2,005617005635766E-002	0,000000000000000E+000	7,902735641558403E-002	7,902735641558403E-002	0,0000000E+000	0,0000000E+000	2,0000001E-002	0,000000000000000E+000	1,5894890E+000
1	1	0	1	0	0	1	4,651594074213924E+004	2,785584619423995E-005	7,991875428119674E-002	2,0000001E-002	1,3576494E+001	13	7,991875334510776E-002	0	1,1986278E+001	2,7229299E-004	1,084991125349600E-003	0,000000000000000E+000	9,394996181917407E+004	0,000000000000000E+000	2,005620922249517E-002	0,000000000000000E+000	7,991875334510776E-002	7,991875334510776E-002	0,0000000E+000	0,0000000E+000	2,0000001E-002	0,000000000000000E+000	1,5902166E+000
1	1	0	1	0	0	1	4,667594074243726E+004	2,785611703101960E-005	8,081014954745894E-002	2,0000001E-002	1,3573969E+001	13	8,081014859067168E-002	0	1,1983644E+001	2,7224500E-004	1,097091529712288E-003	0,000000000000000E+000	9,507626143252153E+004	0,000000000000000E+000	2,005640422497615E-002	0,000000000000000E+000	8,081014859067168E-002	8,081014859067168E-002	0,0000000E+000	0,0000000E+000	2,0000001E-002	0,000000000000000E+000	1,5903254E+000
1	1	0	1	0	0	1	4,683594074273529E+004	2,785588999413368E-005	8,170155183916560E-002	2,0000001E-002	1,3574851E+001	13	8,170155086166685E-002	0	1,1983720E+001	2,7226048E-004	1,109192339997895E-003	0,000000000000000E+000	9,609732572400650E+004	0,000000000000000E+000	2,005624075841859E-002	0,000000000000000E+000	8,170155086166685E-002	8,170155086166685E-002	0,0000000E+000	0,0000000E+000	2,0000001E-002	0,000000000000000E+000	1,5911312E+000
1	1	0	1	0	0	1	4,699594074303331E+004	2,785642701128705E-005	8,259294768367874E-002	2,0000001E-002	1,3573969E+001	13	8,259294668547990E-002	0	1,1982613E+001	2,7224803E-004	1,121292713125360E-003	0,000000000000000E+000	9,717379225877908E+004	0,000000000000000E+000	2,005662741076829E-002	0,000000000000000E+000	8,259294668547990E-002	8,259294668547990E-002	0,0000000E+000	0,0000000E+000	2,0000001E-002	0,000000000000000E+000	1,5913563E+000
1	1	0	1	0	0	1	4,715594074333133E+004	2,785599479493168E-005	8,348434899738162E-002	2,0000001E-002	1,3576294E+001	13	8,348434797850021E-002	0	1,1984216E+001	2,7229046E-004	1,133394050695002E-003	0,000000000000000E+000	9,814798092035206E+004	0,000000000000000E+000	2,005631621499301E-002	0,000000000000000E+000	8,348434797850021E-002	8,348434797850021E-002	0,0000000E+000	0,0000000E+000	2,0000001E-002	0,000000000000000E+000	1,5920782E+000
1	1	0	1	0	0	1	4,731594074362936E+004	2,785594319697056E-005	8,437574730472722E-002	2,0000001E-002	1,3576334E+001	13	8,437574626514988E-002	0	1,1984273E+001	2,7229075E-004	1,145495731593602E-003	0,000000000000000E+000	9,919465160998577E+004	0,000000000000000E+000	2,005627906446107E-002	0,000000000000000E+000	8,437574626514988E-002	8,437574626514988E-002	0,0000000E+000	0,0000000E+000	2,0000001E-002	0,000000000000000E+000	1,5920610E+000
1	1	0	1	0	0	1	4,747594074392738E+004	2,785619837935600E-005	8,526713099484508E-002	2,0000001E-002	1,3576014E+001	13	8,526712993464527E-002	0	1,1983128E+001	2,7228679E-004	1,157596898029731E-003	0,000000000000000E+000	1,002530796377570E+005	0,000000000000000E+000	2,005646279577825E-002	0,000000000000000E+000	8,526712993464527E-002	8,526712993464527E-002	0,0000000E+000	0,0000000E+000	2,0000001E-002	0,000000000000000E+000	1,5928860E+000
1	1	0	1	0	0	1	4,763594074422540E+004	2,785559801198542E-005	8,615851627937766E-002	2,0000001E-002	1,3575412E+001	13	8,615851519847863E-002	0	1,1982020E+001	2,7226887E-004	1,169698141978971E-003	0,000000000000000E+000	1,013210417661024E+005	0,000000000000000E+000	2,005603053127223E-002	0,000000000000000E+000	8,615851519847863E-002	8,615851519847863E-002	0,0000000E+000	0,0000000E+000	2,0000001E-002	0,000000000000000E+000	1,5933914E+000
1	1	0	1	0	0	1	4,779594074452342E+004	2,785539145571076E-005	8,704990494246760E-002	2,0000001E-002	1,3574891E+001	13	8,704990384095329E-002	0	1,1981353E+001	2,7225641E-004	1,181799952235325E-003	0,000000000000000E+000	1,023867160872958E+005	0,000000000000000E+000	2,005588181075476E-002	0,000000000000000E+000	8,704990384095329E-002	8,704990384095329E-002	0,0000000E+000	0,0000000E+000	2,0000001E-002	0,000000000000000E+000	1,5935383E+000
1	1	0	1	0	0	1	4,795594074482145E+004	2,785586658037371E-005	8,794129364532874E-002	2,0000001E-002	1,3576575E+001	13	8,794129252317467E-002	0	1,1982536E+001	2,7229483E-004	1,193901280655795E-003	0,000000000000000E+000	1,033782689581150E+005	0,000000000000000E+000	2,005622390051144E-002	0,000000000000000E+000	8,794129252317467E-002	8,794129252317467E-002	0,0000000E+000	0,0000000E+000	2,0000001E-002	0,000000000000000E+000	1,5940390E+000
1	1	0	1	0	0	1	4,811594074511947E+004	2,785593773786806E-005	8,883269437402518E-002	2,0000001E-002	1,3575933E+001	13	8,883269323127065E-002	0	1,1981353E+001	2,7228266E-004	1,206002720830874E-003	0,000000000000000E+000	1,044480339134234E+005	0,000000000000000E+000	2,005627513390728E-002	0,000000000000000E+000	8,883269323127065E-002	8,883269323127065E-002	0,0000000E+000	0,0000000E+000	2,0000001E-002	0,000000000000000E+000	1,5945807E+000
1	1	0	1	0	0	1	4,827594074541749E+004	2,785674026639511E-005	8,972408022554219E-002	2,0000001E-002	1,3576534E+001	13	8,972407906206277E-002	0	1,1981353E+001	2,7230254E-004	1,218104215946109E-003	0,000000000000000E+000	1,054754134070142E+005	0,000000000000000E+000	2,005685295444568E-002	0,000000000000000E+000	8,972407906206277E-002	8,972407906206277E-002	0,0000000E+000	0,0000000E+000	2,0000001E-002	0,000000000000000E+000	1,5951815E+000
1	1	0	1	0	0	1	4,843594074571552E+004	2,785578782877160E-005	9,061546670602469E-002	2,0000001E-002	1,3575653E+001	13	9,061546552179613E-002	0	1,1979844E+001	2,7227556E-004	1,230205339873080E-003	0,000000000000000E+000	1,065539461121356E+005	0,000000000000000E+000	2,005616719935803E-002	0,000000000000000E+000	9,061546552179613E-002	9,061546552179613E-002	0,0000000E+000	0,0000000E+000	2,0000001E-002	0,000000000000000E+000	1,5958090E+000
1	1	0	1	0	0	1	4,859594074601354E+004	2,785548458465686E-005	9,150685995251789E-002	2,0000001E-002	1,3575492E+001	13	9,150685874765202E-002	0	1,1979386E+001	2,7226939E-004	1,242306734360278E-003	0,000000000000000E+000	1,076077926743415E+005	0,000000000000000E+000	2,005594886359582E-002	0,000000000000000E+000	9,150685874765202E-002	9,150685874765202E-002	0,0000000E+000	0,0000000E+000	2,0000001E-002	0,000000000000000E+000	1,5961056E+000
1	1	0	1	0	0	1	4,875594074631156E+004	2,785532926240315E-005	9,239823146385016E-002	2,0000001E-002	1,3574610E+001	13	9,239823023833366E-002	0	1,1977993E+001	2,7225018E-004	1,254407184926799E-003	0,000000000000000E+000	1,086873229506846E+005	0,000000000000000E+000	2,005583703157336E-002	0,000000000000000E+000	9,239823023833366E-002	9,239823023833366E-002	0,0000000E+000	0,0000000E+000	2,0000001E-002	0,000000000000000E+000	1,5966167E+000
1	1	0	1	0	0	1	4,891594074660959E+004	2,785556772485789E-005	9,328962091235382E-002	2,0000001E-002	1,3574530E+001	13	9,328961966618253E-002	0	1,1977611E+001	2,7225088E-004	1,266508038674700E-003	0,000000000000000E+000	1,097387298812928E+005	0,000000000000000E+000	2,005600872454046E-002	0,000000000000000E+000	9,328961966618253E-002	9,328961966618253E-002	0,0000000E+000	0,0000000E+000	2,0000001E-002	0,000000000000000E+000	1,5969191E+000
1	1	0	1	0	0	1	4,907594074690761E+004	2,785727127879444E-005	9,418101249590267E-002	2,0000001E-002	1,3575653E+001	13	9,418101122916044E-002	0	1,1978374E+001	2,7229005E-004	1,278609412767848E-003	0,000000000000000E+000	1,107466406259818E+005	0,000000000000000E+000	2,005723528337248E-002	0,000000000000000E+000	9,418101122916044E-002	9,418101122916044E-002	0,0000000E+000	0,0000000E+000	2,0000001E-002	0,000000000000000E+000	1,5972786E+000
1	1	0	1	0	0	1	4,923594074720563E+004	2,785597156246917E-005	9,507240024451498E-002	2,0000001E-002	1,3574570E+001	13	9,507239895714424E-002	0	1,1976848E+001	2,7225565E-004	1,290710236666061E-003	0,000000000000000E+000	1,118343905640425E+005	0,000000000000000E+000	2,005629948762003E-002	0,000000000000000E+000	9,507239895714424E-002	9,507239895714424E-002	0,0000000E+000	0,0000000E+000	2,0000001E-002	0,000000000000000E+000	1,5977221E+000
1	1	0	1	0	0	1	4,939594074750366E+004	2,785590146895912E-005	9,596380002004394E-002	2,0000001E-002	1,3576414E+001	13	9,596379871198327E-002	0	1,1978413E+001	2,7229195E-004	1,302811518633631E-003	0,000000000000000E+000	1,128149614448425E+005	0,000000000000000E+000	2,005624902029289E-002	0,000000000000000E+000	9,596379871198327E-002	9,596379871198327E-002	0,0000000E+000	0,0000000E+000	2,0000001E-002	0,000000000000000E+000	1,5980015E+000
1	1	0	1	0	0	1	4,955594074780168E+004	2,785581025822709E-005	9,685518414928185E-002	2,0000001E-002	1,3574691E+001	13	9,685518282052571E-002	0	1,1976122E+001	2,7225647E-004	1,314912700006721E-003	0,000000000000000E+000	1,139269841937546E+005	0,000000000000000E+000	2,005618334856595E-002	0,000000000000000E+000	9,685518282052571E-002	9,685518282052571E-002	0,0000000E+000	0,0000000E+000	2,0000001E-002	0,000000000000000E+000	1,5985689E+000
1	1	0	1	0	0	1	4,971594074809970E+004	2,785573778208345E-005	9,774657618598744E-002	2,0000001E-002	1,3577056E+001	13	9,774657483655012E-002	0	1,1978127E+001	2,7230321E-004	1,327013690500262E-003	0,000000000000000E+000	1,148867123832213E+005	0,000000000000000E+000	2,005613116574263E-002	0,000000000000000E+000	9,774657483655012E-002	9,774657483655012E-002	0,0000000E+000	0,0000000E+000	2,0000001E-002	0,000000000000000E+000	1,5989294E+000
1	1	0	1	0	0	1	4,987594074839773E+004	2,785602078379856E-005	9,863797299396392E-002	2,0000001E-002	1,3574851E+001	13	9,863797162389205E-002	0	1,1975626E+001	2,7226176E-004	1,339115095374076E-003	0,000000000000000E+000	1,160179358644684E+005	0,000000000000000E+000	2,005633492697713E-002	0,000000000000000E+000	9,863797162389205E-002	9,863797162389205E-002	0,0000000E+000	0,0000000E+000	2,0000001E-002	0,000000000000000E+000	1,5992250E+000
1	1	0	1	0	0	1	5,003594074869575E+004	2,785544009030693E-005	9,952935312963318E-002	2,0000001E-002	1,3574851E+001	13	9,952935173891794E-002	0	1,1975186E+001	2,7225606E-004	1,351216050471962E-003	0,000000000000000E+000	1,170663767368158E+005	0,000000000000000E+000	2,005591682766393E-002	0,000000000000000E+000	9,952935173891794E-002	9,952935173891794E-002	0,0000000E+000	0,0000000E+000	2,0000001E-002	0,000000000000000E+000	1,5996647E+000
3	1	0	1	0	0	1	5,017964434896338E+004	0,000000000000000E+000	9,999468789757499E-002	0,0000000E+000	1,5169991E+001	14	9,999468758809173E-002	0	1,3574702E+001	0,0000000E+000	1,357538441959678E-003	5,129689757687558E-009	1,820373927406304E+005	1,698152137741815E+004	0,000000000000000E+000	0,000000000000000E+000	9,999468758809173E-002	9,999468758809173E-002	0,0000000E+000	0,0000000E+000	0,0000000E+000	0,000000000000000E+000	1,5952892E+000