File: SAMPLE-MPT/20220309_SSB_Cell_03_Form01/20220309_(Form02C)EIS_charging_10bis16V_step_01V+(1C+EIS)50cycle_02_GCPL6_C08.mpt
EC-Lab ASCII FILE
Nb header lines : 76

Galvanostatic Cycling with Potential Limitation 6

Run on channel : 8 (SN 14384)
User :
CE vs. WE compliance from -10 V to 10 V
Electrode connection : standard
Potential control : Ewe-Ece
Ecell ctrl range : min = 0,00 V, max = 5,00 V
Safety Limits :
	Do not start on E overload
Acquisition started on : 03/09/2022 13:55:05.456
Technique started on : 03/09/2022 14:17:03.042
Loaded Setting File :  C:\DATA\x_Data_VMP3\Extern\InES\Binbin\001_Testing_Profiles\20220308_(Form02C)EIS_charging_10bis16V_step_01V+(1C+EIS)50cycle.mps
Saved on :
	File : 20220309_(Form02C)EIS_charging_10bis16V_step_01V+(1C+EIS)50cycle_02_GCPL6_C08.mpr
	Directory : C:\DATA\x_Data_VMP3\Extern\InES\Binbin\20220309_SSB_Cell_03_Form01\
	Host : 134.169.45.143
Device : VMP3 (SN 0787)
Address : 134.169.45.150
EC-Lab for windows v11.42 (software)
Internet server v11.40 (firmware)
Command interpretor v11.40 (firmware)
Electrode material :
Initial state :
Electrolyte :
Comments :
Electrode surface area : 0,000 cm²
Characteristic mass : 0,001 g
Equivalent Weight : 0,000 g/eq.
Density : 0,000 g/cm3
Volume (V) : 0,001 cm³
Record Ece
Record Power
Cycle Definition : Charge/Discharge alternance
Ns                  0                   1
Set I/C             I                   I
Is                  0,000               20,000
unit Is             mA                  µA
vs.                 <None>              <None>
N                   1,00                1,00
I sign              < 0                 > 0
t1 (h:m:s)          0:00:0,0000         20:00:0,0000
I Range             100 µA              100 µA
Bandwidth           5                   5
dE1 (mV)            0,00                0,00
dt1 (s)             0,0000              5,0000
EM (V)              0,000               1,000
tM (h:m:s)          0:00:0,0000         10:00:0,0000
Im                  0,000               10,000
unit Im             mA                  µA
dI/dt               0,000               0,000
dunit dI/dt         mA/s                mA/s
E range min (V)     0,000               0,000
E range max (V)     5,000               5,000
dq                  0,000               1,000
unit dq             mA.h                mA.h
dtq (s)             0,0000              120,0000
dQM                 0,000               0,000
unit dQM            mA.h                mA.h
dxM                 0,000               0,000
delta SoC (%)       pass                pass
tR (h:m:s)          0:00:10,0000        0:01:0,0000
dER/dt (mV/h)       0,0                 0,1
dER (mV)            0,00                0,00
dtR (s)             1,0000              120,0000
EL (V)              pass                pass
goto Ns'            0                   0
nc cycles           0                   0

Number of loops : 1
Loop 0 from point number 0 to 80

mode	ox/red	error	control changes	Ns changes	counter inc.	Ns	time/s	dq/mA.h	(Q-Qo)/mA.h	control/V/mA	Ewe/V	I Range	Q charge/discharge/mA.h	half cycle	Ece/V	P/W	Energy charge/W.h	Energy discharge/W.h	Capacitance charge/µF	Capacitance discharge/µF	<I>/mA	Q discharge/mA.h	Q charge/mA.h	Capacity/mA.h	Efficiency/%	control/V	control/mA	cycle number	 Ecell/V
3	0	0	0	0	0	0	1,317586462581967E+003	0,000000000000000E+000	0,000000000000000E+000	0,0000000E+000	1,0514146E+001	14	0,000000000000000E+000	0	1,3590477E+001	0,0000000E+000	0,000000000000000E+000	0,000000000000000E+000	0,000000000000000E+000	0,000000000000000E+000	0,000000000000000E+000	0,000000000000000E+000	0,000000000000000E+000	0,000000000000000E+000	0,0000000E+000	0,0000000E+000	0,0000000E+000	0,000000000000000E+000	-3,0763311E+000
3	0	0	0	0	0	0	1,318586462556705E+003	0,000000000000000E+000	0,000000000000000E+000	0,0000000E+000	1,3856397E+001	14	0,000000000000000E+000	0	1,3576186E+001	0,0000000E+000	0,000000000000000E+000	0,000000000000000E+000	0,000000000000000E+000	0,000000000000000E+000	0,000000000000000E+000	0,000000000000000E+000	0,000000000000000E+000	0,000000000000000E+000	0,0000000E+000	0,0000000E+000	0,0000000E+000	0,000000000000000E+000	2,8021049E-001
3	0	0	0	0	0	0	1,319586462531443E+003	0,000000000000000E+000	0,000000000000000E+000	0,0000000E+000	1,3853230E+001	14	0,000000000000000E+000	0	1,3576386E+001	0,0000000E+000	0,000000000000000E+000	0,000000000000000E+000	0,000000000000000E+000	0,000000000000000E+000	0,000000000000000E+000	0,000000000000000E+000	0,000000000000000E+000	0,000000000000000E+000	0,0000000E+000	0,0000000E+000	0,0000000E+000	0,000000000000000E+000	2,7684307E-001
3	0	0	0	0	0	0	1,320586462506180E+003	0,000000000000000E+000	0,000000000000000E+000	0,0000000E+000	1,3850303E+001	14	0,000000000000000E+000	0	1,3576547E+001	0,0000000E+000	0,000000000000000E+000	0,000000000000000E+000	0,000000000000000E+000	0,000000000000000E+000	0,000000000000000E+000	0,000000000000000E+000	0,000000000000000E+000	0,000000000000000E+000	0,0000000E+000	0,0000000E+000	0,0000000E+000	0,000000000000000E+000	2,7375603E-001
3	0	0	0	0	0	0	1,321586462480918E+003	0,000000000000000E+000	0,000000000000000E+000	0,0000000E+000	1,3847536E+001	14	0,000000000000000E+000	0	1,3576987E+001	0,0000000E+000	0,000000000000000E+000	0,000000000000000E+000	0,000000000000000E+000	0,000000000000000E+000	0,000000000000000E+000	0,000000000000000E+000	0,000000000000000E+000	0,000000000000000E+000	0,0000000E+000	0,0000000E+000	0,0000000E+000	0,000000000000000E+000	2,7054882E-001
3	0	0	0	0	0	0	1,322586462455656E+003	0,000000000000000E+000	0,000000000000000E+000	0,0000000E+000	1,3844248E+001	14	0,000000000000000E+000	0	1,3576707E+001	0,0000000E+000	0,000000000000000E+000	0,000000000000000E+000	0,000000000000000E+000	0,000000000000000E+000	0,000000000000000E+000	0,000000000000000E+000	0,000000000000000E+000	0,000000000000000E+000	0,0000000E+000	0,0000000E+000	0,0000000E+000	0,000000000000000E+000	2,6754093E-001
3	0	0	0	0	0	0	1,323586462430394E+003	0,000000000000000E+000	0,000000000000000E+000	0,0000000E+000	1,3841763E+001	14	0,000000000000000E+000	0	1,3576867E+001	0,0000000E+000	0,000000000000000E+000	0,000000000000000E+000	0,000000000000000E+000	0,000000000000000E+000	0,000000000000000E+000	0,000000000000000E+000	0,000000000000000E+000	0,000000000000000E+000	0,0000000E+000	0,0000000E+000	0,0000000E+000	0,000000000000000E+000	2,6489544E-001
3	0	0	0	0	0	0	1,324586462405132E+003	0,000000000000000E+000	0,000000000000000E+000	0,0000000E+000	1,3839637E+001	14	0,000000000000000E+000	0	1,3576907E+001	0,0000000E+000	0,000000000000000E+000	0,000000000000000E+000	0,000000000000000E+000	0,000000000000000E+000	0,000000000000000E+000	0,000000000000000E+000	0,000000000000000E+000	0,000000000000000E+000	0,0000000E+000	0,0000000E+000	0,0000000E+000	0,000000000000000E+000	2,6272964E-001
3	0	0	0	0	0	0	1,325586462379870E+003	0,000000000000000E+000	0,000000000000000E+000	0,0000000E+000	1,3836991E+001	14	0,000000000000000E+000	0	1,3576987E+001	0,0000000E+000	0,000000000000000E+000	0,000000000000000E+000	0,000000000000000E+000	0,000000000000000E+000	0,000000000000000E+000	0,000000000000000E+000	0,000000000000000E+000	0,000000000000000E+000	0,0000000E+000	0,0000000E+000	0,0000000E+000	0,000000000000000E+000	2,6000404E-001
3	0	0	0	0	0	0	1,326586462354608E+003	0,000000000000000E+000	0,000000000000000E+000	0,0000000E+000	1,3835027E+001	14	0,000000000000000E+000	0	1,3577709E+001	0,0000000E+000	0,000000000000000E+000	0,000000000000000E+000	0,000000000000000E+000	0,000000000000000E+000	0,000000000000000E+000	0,000000000000000E+000	0,000000000000000E+000	0,000000000000000E+000	0,0000000E+000	0,0000000E+000	0,0000000E+000	0,000000000000000E+000	2,5731754E-001
3	0	0	1	0	0	0	1,327586262329351E+003	0,000000000000000E+000	0,000000000000000E+000	2,0000001E-002	1,3576214E+001	13	0,000000000000000E+000	0	1,3321932E+001	0,0000000E+000	0,000000000000000E+000	0,000000000000000E+000	0,000000000000000E+000	0,000000000000000E+000	0,000000000000000E+000	0,000000000000000E+000	0,000000000000000E+000	0,000000000000000E+000	0,0000000E+000	0,0000000E+000	0,0000000E+000	0,000000000000000E+000	2,5428200E-001
1	1	0	1	1	0	1	1,327586662329340E+003	2,213510477708446E-009	2,213510477708446E-009	2,0000001E-002	1,0514146E+001	13	2,213510477708446E-009	0	1,0506271E+001	2,0945855E-004	2,327317200564267E-011	0,000000000000000E+000	0,000000000000000E+000	0,000000000000000E+000	1,992159480263783E-002	0,000000000000000E+000	2,213510477708446E-009	2,213510477708446E-009	0,0000000E+000	0,0000000E+000	2,0000001E-002	0,000000000000000E+000	7,8744888E-003
1	1	0	1	0	0	1	1,332586662203030E+003	2,785794585073988E-005	2,786015936121759E-005	2,0000001E-002	1,3577096E+001	13	2,786015936121759E-005	0	1,2720053E+001	2,7232562E-004	3,782532779439276E-007	0,000000000000000E+000	3,274508865749026E+001	0,000000000000000E+000	2,005772151923338E-002	0,000000000000000E+000	2,786015936121759E-005	2,786015936121759E-005	0,0000000E+000	0,0000000E+000	2,0000001E-002	0,000000000000000E+000	8,5704327E-001
1	1	0	1	0	0	1	1,337586662076719E+003	2,785828089269085E-005	5,571844025390843E-005	2,0000001E-002	1,3577296E+001	13	5,571844025390844E-005	0	1,2685094E+001	2,7233289E-004	7,564934108352442E-007	0,000000000000000E+000	6,548368781656238E+001	0,000000000000000E+000	2,005796274944417E-002	0,000000000000000E+000	5,571844025390844E-005	5,571844025390844E-005	0,0000000E+000	0,0000000E+000	2,0000001E-002	0,000000000000000E+000	8,9220238E-001
1	1	0	1	0	0	1	1,342586661950409E+003	2,785825683000601E-005	8,357669708391445E-005	2,0000001E-002	1,3576896E+001	13	8,357669708391445E-005	0	1,2663926E+001	2,7232463E-004	1,134722058584664E-006	0,000000000000000E+000	9,823724528378897E+001	0,000000000000000E+000	2,005794542431065E-002	0,000000000000000E+000	8,357669708391445E-005	8,357669708391445E-005	0,0000000E+000	0,0000000E+000	2,0000001E-002	0,000000000000000E+000	9,1296959E-001
1	1	0	1	0	0	1	1,347586661824098E+003	2,785831286634008E-005	1,114350099502545E-004	2,0000001E-002	1,3577778E+001	13	1,114350099502545E-004	0	1,2649613E+001	2,7234288E-004	1,512976042309215E-006	0,000000000000000E+000	1,309445894044619E+002	0,000000000000000E+000	2,005798577047220E-002	0,000000000000000E+000	1,114350099502545E-004	1,114350099502545E-004	0,0000000E+000	0,0000000E+000	2,0000001E-002	0,000000000000000E+000	9,2816448E-001
1	1	0	1	0	0	1	1,352586661697787E+003	2,785806368436250E-005	1,392930736346170E-004	2,0000001E-002	1,3578178E+001	13	1,392930736346170E-004	0	1,2638589E+001	2,7234846E-004	1,891237801054561E-006	0,000000000000000E+000	1,636585304315585E+002	0,000000000000000E+000	2,005780635944381E-002	0,000000000000000E+000	1,392930736346170E-004	1,392930736346170E-004	0,0000000E+000	0,0000000E+000	2,0000001E-002	0,000000000000000E+000	9,3958950E-001
1	1	0	1	0	0	1	1,357586661571477E+003	2,785792820414321E-005	1,671510018387603E-004	2,0000001E-002	1,3579061E+001	13	1,671510018387603E-004	0	1,2630010E+001	2,7236482E-004	2,269522295061657E-006	0,000000000000000E+000	1,963329047813513E+002	0,000000000000000E+000	2,005770881368346E-002	0,000000000000000E+000	1,671510018387603E-004	1,671510018387603E-004	0,0000000E+000	0,0000000E+000	2,0000001E-002	0,000000000000000E+000	9,4905090E-001
1	1	0	1	0	0	1	1,362586661445166E+003	2,785789785099526E-005	1,950088996897555E-004	2,0000001E-002	1,3578940E+001	13	1,950088996897555E-004	0	1,2621791E+001	2,7236214E-004	2,647803029413947E-006	0,000000000000000E+000	2,290633285943816E+002	0,000000000000000E+000	2,005768695941638E-002	0,000000000000000E+000	1,950088996897555E-004	1,950088996897555E-004	0,0000000E+000	0,0000000E+000	2,0000001E-002	0,000000000000000E+000	9,5714951E-001
1	1	0	1	0	0	1	1,367586661318855E+003	2,785801115632057E-005	2,228669108460761E-004	2,0000001E-002	1,3578379E+001	13	2,228669108460761E-004	0	1,2614935E+001	2,7235196E-004	3,026069654092814E-006	0,000000000000000E+000	2,618341766256146E+002	0,000000000000000E+000	2,005776853925266E-002	0,000000000000000E+000	2,228669108460761E-004	2,228669108460761E-004	0,0000000E+000	0,0000000E+000	2,0000001E-002	0,000000000000000E+000	9,6344376E-001
1	1	0	1	0	0	1	1,372586661192545E+003	2,785799615778443E-005	2,507249070038605E-004	2,0000001E-002	1,3577938E+001	13	2,507249070038605E-004	0	1,2608521E+001	2,7234299E-004	3,404323800951465E-006	0,000000000000000E+000	2,946053772051177E+002	0,000000000000000E+000	2,005775774030637E-002	0,000000000000000E+000	2,507249070038605E-004	2,507249070038605E-004	0,0000000E+000	0,0000000E+000	2,0000001E-002	0,000000000000000E+000	9,6941757E-001
1	1	0	1	0	0	1	1,377586661066234E+003	2,785803731975870E-005	2,785829443236192E-004	2,0000001E-002	1,3578740E+001	13	2,785829443236192E-004	0	1,2603470E+001	2,7235950E-004	3,782600849967893E-006	0,000000000000000E+000	3,272533038959563E+002	0,000000000000000E+000	2,005778737692859E-002	0,000000000000000E+000	2,785829443236192E-004	2,785829443236192E-004	0,0000000E+000	0,0000000E+000	2,0000001E-002	0,000000000000000E+000	9,7527027E-001
1	1	0	1	0	0	1	1,382586660939924E+003	2,785809973503153E-005	3,064410440586507E-004	2,0000001E-002	1,3578299E+001	13	3,064410440586507E-004	0	1,2598378E+001	2,7235123E-004	4,160866445727487E-006	0,000000000000000E+000	3,600302792605898E+002	0,000000000000000E+000	2,005783231592616E-002	0,000000000000000E+000	3,064410440586507E-004	3,064410440586507E-004	0,0000000E+000	0,0000000E+000	2,0000001E-002	0,000000000000000E+000	9,7992039E-001
1	1	0	1	0	0	1	1,387586660813613E+003	2,785787275640501E-005	3,342989168150557E-004	2,0000001E-002	1,3578700E+001	13	3,342989168150557E-004	0	1,2594529E+001	2,7235708E-004	4,539140144352716E-006	0,000000000000000E+000	3,927083733251478E+002	0,000000000000000E+000	2,005766889131094E-002	0,000000000000000E+000	3,342989168150557E-004	3,342989168150557E-004	0,0000000E+000	0,0000000E+000	2,0000001E-002	0,000000000000000E+000	9,8417091E-001
1	1	0	1	0	0	1	1,392586660687302E+003	2,785774736416837E-005	3,621566641792241E-004	2,0000001E-002	1,3577296E+001	13	3,621566641792241E-004	0	1,2589077E+001	2,7232768E-004	4,917373033369221E-006	0,000000000000000E+000	4,256284603396877E+002	0,000000000000000E+000	2,005757860889828E-002	0,000000000000000E+000	3,621566641792241E-004	3,621566641792241E-004	0,0000000E+000	0,0000000E+000	2,0000001E-002	0,000000000000000E+000	9,8821926E-001
1	1	0	1	0	0	1	1,397586660560992E+003	2,785794237587187E-005	3,900146065550960E-004	2,0000001E-002	1,3576816E+001	13	3,900146065550960E-004	0	1,2584908E+001	2,7231994E-004	5,295595180145706E-006	0,000000000000000E+000	4,584407384281636E+002	0,000000000000000E+000	2,005771901732835E-002	0,000000000000000E+000	3,900146065550960E-004	3,900146065550960E-004	0,0000000E+000	0,0000000E+000	2,0000001E-002	0,000000000000000E+000	9,9190807E-001
1	1	0	1	0	0	1	1,402586660434681E+003	2,785782972433501E-005	4,178724362794310E-004	2,0000001E-002	1,3577938E+001	13	4,178724362794310E-004	0	1,2583263E+001	2,7234136E-004	5,673847067181286E-006	0,000000000000000E+000	4,910061317196052E+002	0,000000000000000E+000	2,005763790821976E-002	0,000000000000000E+000	4,178724362794310E-004	4,178724362794310E-004	0,0000000E+000	0,0000000E+000	2,0000001E-002	0,000000000000000E+000	9,9467468E-001
1	1	0	1	0	0	1	1,407586660308370E+003	2,785795268954502E-005	4,457303889689760E-004	2,0000001E-002	1,3578339E+001	13	4,457303889689760E-004	0	1,2580658E+001	2,7235062E-004	6,052111782144748E-006	0,000000000000000E+000	5,236711655341621E+002	0,000000000000000E+000	2,005772644317320E-002	0,000000000000000E+000	4,457303889689760E-004	4,457303889689760E-004	0,0000000E+000	0,0000000E+000	2,0000001E-002	0,000000000000000E+000	9,9768066E-001
1	1	0	1	0	0	1	1,410568460233044E+003	1,661335377602114E-005	4,623437427449972E-004	2,0000001E-002	1,3578500E+001	13	4,623437427449972E-004	0	1,2578293E+001	2,7235359E-004	6,277696202970206E-006	0,000000000000000E+000	5,431609745193219E+002	0,000000000000000E+000	2,005770846621341E-002	0,000000000000000E+000	4,623437427449972E-004	4,623437427449972E-004	0,0000000E+000	0,0000000E+000	2,0000001E-002	0,000000000000000E+000	1,0002069E+000
1	1	0	1	0	0	1	1,410568660233039E+003	1,114095871647199E-009	4,623448568408688E-004	2,0000001E-002	1,3578178E+001	13	4,623448568408688E-004	0	1,2578573E+001	2,7229305E-004	6,277711330362712E-006	0,000000000000000E+000	5,432192559814494E+002	0,000000000000000E+000	2,005372619624932E-002	0,000000000000000E+000	4,623448568408688E-004	4,623448568408688E-004	0,0000000E+000	0,0000000E+000	2,0000001E-002	0,000000000000000E+000	9,9960518E-001
2	1	0	0	0	0	1	1,410569860233009E+003	6,666993101437887E-009	4,623515238339702E-004	1,0000278E+000	1,2491664E+001	13	4,623515238339702E-004	0	1,2498991E+001	2,4984550E-004	6,277794612199977E-006	0,000000000000000E+000	8,416941929556665E+002	0,000000000000000E+000	2,000097980958091E-002	0,000000000000000E+000	4,623515238339702E-004	4,623515238339702E-004	0,0000000E+000	1,0000278E+000	0,0000000E+000	0,000000000000000E+000	-7,3270798E-003
2	1	0	0	0	0	1	1,530570057201548E+003	6,247412686441094E-004	1,087092792478080E-003	1,0000278E+000	1,3576896E+001	13	1,087092792478080E-003	0	1,2580538E+001	2,5446099E-004	1,475984166469200E-005	0,000000000000000E+000	1,277784418708048E+003	0,000000000000000E+000	1,874220729577989E-002	0,000000000000000E+000	1,087092792478080E-003	1,087092792478080E-003	0,0000000E+000	1,0000278E+000	0,0000000E+000	0,000000000000000E+000	9,9635792E-001
2	1	0	0	0	0	1	1,650570254170088E+003	5,995333814733765E-004	1,686626173951456E-003	1,0000278E+000	1,3577858E+001	13	1,686626173951456E-003	0	1,2580978E+001	2,4421097E-004	2,290022076732563E-005	0,000000000000000E+000	1,981861868312208E+003	0,000000000000000E+000	1,798597192194605E-002	0,000000000000000E+000	1,686626173951456E-003	1,686626173951456E-003	0,0000000E+000	1,0000278E+000	0,0000000E+000	0,000000000000000E+000	9,9687958E-001
2	1	0	0	0	0	1	1,770570451138628E+003	6,044822564050555E-004	2,291108430356512E-003	1,0000278E+000	1,3578460E+001	13	2,291108430356512E-003	0	1,2581580E+001	2,4623773E-004	3,110815874927565E-005	0,000000000000000E+000	2,691627114344617E+003	0,000000000000000E+000	1,813443792620366E-002	0,000000000000000E+000	2,291108430356512E-003	2,291108430356512E-003	0,0000000E+000	1,0000278E+000	0,0000000E+000	0,000000000000000E+000	9,9687958E-001
2	1	0	0	0	0	1	1,890570648107168E+003	6,137371597212429E-004	2,904845590077755E-003	1,0000278E+000	1,3578780E+001	13	2,904845590077755E-003	0	1,2582021E+001	2,5001366E-004	3,944196072590227E-005	0,000000000000000E+000	3,412297527762839E+003	0,000000000000000E+000	1,841208456995883E-002	0,000000000000000E+000	2,904845590077755E-003	2,904845590077755E-003	0,0000000E+000	1,0000278E+000	0,0000000E+000	0,000000000000000E+000	9,9675941E-001
2	1	0	0	0	0	1	2,010570845075708E+003	6,191803931080632E-004	3,524025983185818E-003	1,0000278E+000	1,3577096E+001	13	3,524025983185818E-003	0	1,2580257E+001	2,5219974E-004	4,784863235541595E-005	0,000000000000000E+000	4,141919712467708E+003	0,000000000000000E+000	1,857538130352744E-002	0,000000000000000E+000	3,524025983185818E-003	3,524025983185818E-003	0,0000000E+000	1,0000278E+000	0,0000000E+000	0,000000000000000E+000	9,9683857E-001
2	1	0	0	0	0	1	2,130571042044248E+003	6,202578224792248E-004	4,144283805665043E-003	1,0000278E+000	1,3576534E+001	13	4,144283805665042E-003	0	1,2579415E+001	2,5262812E-004	5,626958393930998E-005	0,000000000000000E+000	4,871825403481216E+003	0,000000000000000E+000	1,860770413160745E-002	0,000000000000000E+000	4,144283805665042E-003	4,144283805665042E-003	0,0000000E+000	1,0000278E+000	0,0000000E+000	0,000000000000000E+000	9,9711895E-001
2	1	0	0	0	0	1	2,250571239012788E+003	6,180522864220871E-004	4,762336092087129E-003	1,0000278E+000	1,3579261E+001	13	4,762336092087129E-003	0	1,2582663E+001	2,5178041E-004	6,466227714080968E-005	0,000000000000000E+000	5,593398639687317E+003	0,000000000000000E+000	1,854153815849845E-002	0,000000000000000E+000	4,762336092087129E-003	4,762336092087129E-003	0,0000000E+000	1,0000278E+000	0,0000000E+000	0,000000000000000E+000	9,9659824E-001
2	1	0	0	0	0	1	2,370571435981328E+003	6,137777659997551E-004	5,376113858086885E-003	1,0000278E+000	1,3577456E+001	13	5,376113858086885E-003	0	1,2580658E+001	2,5000583E-004	7,299581804356702E-005	0,000000000000000E+000	6,318004365189507E+003	0,000000000000000E+000	1,841330275631465E-002	0,000000000000000E+000	5,376113858086885E-003	5,376113858086885E-003	0,0000000E+000	1,0000278E+000	0,0000000E+000	0,000000000000000E+000	9,9679852E-001
2	1	0	0	0	0	1	2,490571632949868E+003	6,083249472459365E-004	5,984438805332821E-003	1,0000278E+000	1,3577818E+001	13	5,984438805332821E-003	0	1,2581179E+001	2,4779135E-004	8,125554341156197E-005	0,000000000000000E+000	7,032077597388198E+003	0,000000000000000E+000	1,824971846220809E-002	0,000000000000000E+000	5,984438805332821E-003	5,984438805332821E-003	0,0000000E+000	1,0000278E+000	0,0000000E+000	0,000000000000000E+000	9,9663925E-001
2	1	0	0	0	0	1	2,610571829918408E+003	6,022085637488506E-004	6,586647369081672E-003	1,0000278E+000	1,3578660E+001	13	6,586647369081672E-003	0	1,2581981E+001	2,4531517E-004	8,943272875459578E-005	0,000000000000000E+000	7,737582301621677E+003	0,000000000000000E+000	1,806622725847880E-002	0,000000000000000E+000	6,586647369081672E-003	6,586647369081672E-003	0,0000000E+000	1,0000278E+000	0,0000000E+000	0,000000000000000E+000	9,9667931E-001
2	1	0	0	0	0	1	2,730572026886948E+003	5,954960635275476E-004	7,182143432609219E-003	1,0000278E+000	1,3577578E+001	13	7,182143432609219E-003	0	1,2580618E+001	2,4256144E-004	9,751812276224182E-005	0,000000000000000E+000	8,440115058356432E+003	0,000000000000000E+000	1,786485258237701E-002	0,000000000000000E+000	7,182143432609219E-003	7,182143432609219E-003	0,0000000E+000	1,0000278E+000	0,0000000E+000	0,000000000000000E+000	9,9695969E-001
2	1	0	0	0	0	1	2,850572223855488E+003	5,884920020321798E-004	7,770635434641399E-003	1,0000278E+000	1,3578700E+001	13	7,770635434641399E-003	0	1,2581861E+001	2,3972831E-004	1,055090791488488E-004	0,000000000000000E+000	9,128338285729507E+003	0,000000000000000E+000	1,765473108241035E-002	0,000000000000000E+000	7,770635434641399E-003	7,770635434641399E-003	0,0000000E+000	1,0000278E+000	0,0000000E+000	0,000000000000000E+000	9,9683952E-001
2	1	0	0	0	0	1	2,970572420824028E+003	5,812806692596318E-004	8,351916103901031E-003	1,0000278E+000	1,3577938E+001	13	8,351916103901031E-003	0	1,2581260E+001	2,3677740E-004	1,134016720830605E-004	0,000000000000000E+000	9,813621724216553E+003	0,000000000000000E+000	1,743839145433475E-002	0,000000000000000E+000	8,351916103901031E-003	8,351916103901031E-003	0,0000000E+000	1,0000278E+000	0,0000000E+000	0,000000000000000E+000	9,9667835E-001
2	1	0	0	0	0	1	3,090572617792568E+003	5,738542044417312E-004	8,925770308342762E-003	1,0000278E+000	1,3578580E+001	13	8,925770308342762E-003	0	1,2581620E+001	2,3376338E-004	1,211937972505436E-004	0,000000000000000E+000	1,048571206620094E+004	0,000000000000000E+000	1,721559787549212E-002	0,000000000000000E+000	8,925770308342762E-003	8,925770308342762E-003	0,0000000E+000	1,0000278E+000	0,0000000E+000	0,000000000000000E+000	9,9695969E-001
2	1	0	0	0	0	1	3,210572814761108E+003	5,662870132896222E-004	9,492057321632384E-003	1,0000278E+000	1,3580344E+001	13	9,492057321632384E-003	0	1,2583545E+001	2,3071081E-004	1,288841698070827E-004	0,000000000000000E+000	1,114455180925657E+004	0,000000000000000E+000	1,698858251355288E-002	0,000000000000000E+000	9,492057321632384E-003	9,492057321632384E-003	0,0000000E+000	1,0000278E+000	0,0000000E+000	0,000000000000000E+000	9,9679947E-001
2	1	0	0	0	0	1	3,330573011729648E+003	5,585478848472445E-004	1,005060520647963E-002	1,0000278E+000	1,3579181E+001	13	1,005060520647963E-002	0	1,2581981E+001	2,2753832E-004	1,364687924747831E-004	0,000000000000000E+000	1,180481799432671E+004	0,000000000000000E+000	1,675640904137213E-002	0,000000000000000E+000	1,005060520647963E-002	1,005060520647963E-002	0,0000000E+000	1,0000278E+000	0,0000000E+000	0,000000000000000E+000	9,9720001E-001
2	1	0	0	0	0	1	3,450573208698188E+003	5,508280109476505E-004	1,060143321742728E-002	1,0000278E+000	1,3579542E+001	13	1,060143321742728E-002	0	1,2582663E+001	2,2439941E-004	1,439487846723744E-004	0,000000000000000E+000	1,245031824170459E+004	0,000000000000000E+000	1,652481320452676E-002	0,000000000000000E+000	1,060143321742728E-002	1,060143321742728E-002	0,0000000E+000	1,0000278E+000	0,0000000E+000	0,000000000000000E+000	9,9687958E-001
2	1	0	0	0	0	1	3,570573405666728E+003	5,430724033961694E-004	1,114450562082345E-002	1,0000278E+000	1,3579742E+001	13	1,114450562082345E-002	0	1,2582903E+001	2,2124314E-004	1,513235680322265E-004	0,000000000000000E+000	1,308724719034965E+004	0,000000000000000E+000	1,629214535988438E-002	0,000000000000000E+000	1,114450562082345E-002	1,114450562082345E-002	0,0000000E+000	1,0000278E+000	0,0000000E+000	0,000000000000000E+000	9,9683952E-001
2	1	0	0	0	0	1	3,690573602635268E+003	5,352387571715647E-004	1,167974437799501E-002	1,0000278E+000	1,3579181E+001	13	1,167974437799501E-002	0	1,2582301E+001	2,1804274E-004	1,585916718428522E-004	0,000000000000000E+000	1,371830390010766E+004	0,000000000000000E+000	1,605713635889107E-002	0,000000000000000E+000	1,167974437799501E-002	1,167974437799501E-002	0,0000000E+000	1,0000278E+000	0,0000000E+000	0,000000000000000E+000	9,9687958E-001
2	1	0	0	0	0	1	3,810573799603808E+003	5,273909960520557E-004	1,220713537404707E-002	1,0000278E+000	1,3579101E+001	13	1,220713537404707E-002	0	1,2582301E+001	2,1484452E-004	1,657531672384319E-004	0,000000000000000E+000	1,433811942453739E+004	0,000000000000000E+000	1,582170391174568E-002	0,000000000000000E+000	1,220713537404707E-002	1,220713537404707E-002	0,0000000E+000	1,0000278E+000	0,0000000E+000	0,000000000000000E+000	9,9679947E-001
2	1	0	0	0	0	1	3,930573996572348E+003	5,196467352899620E-004	1,272678210933703E-002	1,0000278E+000	1,3580063E+001	13	1,272678210933703E-002	0	1,2583385E+001	2,1170471E-004	1,728100025718908E-004	0,000000000000000E+000	1,494378855276431E+004	0,000000000000000E+000	1,558937647022617E-002	0,000000000000000E+000	1,272678210933703E-002	1,272678210933703E-002	0,0000000E+000	1,0000278E+000	0,0000000E+000	0,000000000000000E+000	9,9667835E-001
2	1	0	0	0	0	1	4,050574193540888E+003	5,118154774648655E-004	1,323859758680190E-002	1,0000278E+000	1,3579061E+001	13	1,323859758680190E-002	0	1,2582101E+001	2,0849885E-004	1,797599759331188E-004	0,000000000000000E+000	1,554984589296962E+004	0,000000000000000E+000	1,535443912110050E-002	0,000000000000000E+000	1,323859758680190E-002	1,323859758680190E-002	0,0000000E+000	1,0000278E+000	0,0000000E+000	0,000000000000000E+000	9,9695969E-001
2	1	0	0	0	0	1	4,170574391490431E+003	5,040033360016532E-004	1,374260092280355E-002	1,0000278E+000	1,3578700E+001	13	1,374260092280355E-002	0	1,2582061E+001	2,0531096E-004	1,866036860647535E-004	0,000000000000000E+000	1,614373897788173E+004	0,000000000000000E+000	1,512007513828326E-002	0,000000000000000E+000	1,374260092280355E-002	1,374260092280355E-002	0,0000000E+000	1,0000278E+000	0,0000000E+000	0,000000000000000E+000	9,9663925E-001
2	1	0	0	0	0	1	4,290574390037567E+003	4,962122944867134E-004	1,423881321729026E-002	1,0000278E+000	1,3580424E+001	13	1,423881321729026E-002	0	1,2583263E+001	2,0216321E-004	1,933424595711148E-004	0,000000000000000E+000	1,671724479376569E+004	0,000000000000000E+000	1,488636901483355E-002	0,000000000000000E+000	1,423881321729026E-002	1,423881321729026E-002	0,0000000E+000	1,0000278E+000	0,0000000E+000	0,000000000000000E+000	9,9716091E-001
2	1	0	0	0	0	1	4,410574388584704E+003	4,883387354789302E-004	1,472715195519498E-002	1,0000278E+000	1,3581025E+001	13	1,472715195276919E-002	0	1,2584065E+001	1,9896422E-004	1,999746002064794E-004	0,000000000000000E+000	1,728719728423688E+004	0,000000000000000E+000	1,465016224174025E-002	0,000000000000000E+000	1,472715195276919E-002	1,472715195276919E-002	0,0000000E+000	1,0000278E+000	0,0000000E+000	0,000000000000000E+000	9,9695969E-001
2	1	0	0	0	0	1	4,530574387131841E+003	4,803294403396754E-004	1,520748140267298E-002	1,0000278E+000	1,3579943E+001	13	1,520748139310887E-002	0	1,2583023E+001	1,9568538E-004	2,064974464849749E-004	0,000000000000000E+000	1,785732573163827E+004	0,000000000000000E+000	1,440988338465351E-002	0,000000000000000E+000	1,520748139310887E-002	1,520748139310887E-002	0,0000000E+000	1,0000278E+000	0,0000000E+000	0,000000000000000E+000	9,9691963E-001
2	1	0	0	0	0	1	4,650574385678978E+003	4,722666248957006E-004	1,567974803459458E-002	1,0000278E+000	1,3580384E+001	13	1,567974801800457E-002	0	1,2583344E+001	1,9240686E-004	2,129110087216133E-004	0,000000000000000E+000	1,840923158606717E+004	0,000000000000000E+000	1,416799891840572E-002	0,000000000000000E+000	1,567974801800457E-002	1,567974801800457E-002	0,0000000E+000	1,0000278E+000	0,0000000E+000	0,000000000000000E+000	9,9704075E-001
2	1	0	0	0	0	1	4,770574384226114E+003	4,644125835224986E-004	1,614416062505088E-002	1,0000278E+000	1,3580665E+001	13	1,614416060152707E-002	0	1,2583665E+001	1,8921096E-004	2,192180402705691E-004	0,000000000000000E+000	1,895275466007376E+004	0,000000000000000E+000	1,393237767435695E-002	0,000000000000000E+000	1,614416060152707E-002	1,614416060152707E-002	0,0000000E+000	1,0000278E+000	0,0000000E+000	0,000000000000000E+000	9,9699974E-001
2	1	0	0	0	0	1	4,890574382773251E+003	4,563771717585623E-004	1,660053780359733E-002	1,0000278E+000	1,3581467E+001	13	1,660053777328563E-002	0	1,2584386E+001	1,8594814E-004	2,254163116199496E-004	0,000000000000000E+000	1,948343176972767E+004	0,000000000000000E+000	1,369131531852027E-002	0,000000000000000E+000	1,660053777328563E-002	1,660053777328563E-002	0,0000000E+000	1,0000278E+000	0,0000000E+000	0,000000000000000E+000	9,9708080E-001
2	1	0	0	0	0	1	5,010574381320388E+003	4,484295520830072E-004	1,704896736235084E-002	1,0000278E+000	1,3579502E+001	13	1,704896732536864E-002	0	1,2582502E+001	1,8268351E-004	2,315057616667247E-004	0,000000000000000E+000	2,002256092735423E+004	0,000000000000000E+000	1,345288672536692E-002	0,000000000000000E+000	1,704896732536864E-002	1,704896732536864E-002	0,0000000E+000	1,0000278E+000	0,0000000E+000	0,000000000000000E+000	9,9699974E-001
2	1	0	0	0	0	1	5,130574379867525E+003	4,405652125921204E-004	1,748953258146625E-002	1,0000278E+000	1,3580585E+001	13	1,748953253796076E-002	0	1,2583585E+001	1,7949399E-004	2,374888947755745E-004	0,000000000000000E+000	2,053271687820811E+004	0,000000000000000E+000	1,321695653778386E-002	0,000000000000000E+000	1,748953253796076E-002	1,748953253796076E-002	0,0000000E+000	1,0000278E+000	0,0000000E+000	0,000000000000000E+000	9,9699974E-001
2	1	0	0	0	0	1	5,250574378414662E+003	4,326198720639158E-004	1,792215245997461E-002	1,0000278E+000	1,3581947E+001	13	1,792215241002468E-002	0	1,2584827E+001	1,7627461E-004	2,433647150904131E-004	0,000000000000000E+000	2,103126593778350E+004	0,000000000000000E+000	1,297859631905185E-002	0,000000000000000E+000	1,792215241002468E-002	1,792215241002468E-002	0,0000000E+000	1,0000278E+000	0,0000000E+000	0,000000000000000E+000	9,9711990E-001
2	1	0	0	0	0	1	5,370574376961798E+003	4,247847781526960E-004	1,834693724444177E-002	1,0000278E+000	1,3582148E+001	13	1,834693718817737E-002	0	1,2585148E+001	1,7308470E-004	2,491342046447799E-004	0,000000000000000E+000	2,152833646173633E+004	0,000000000000000E+000	1,274354349886943E-002	0,000000000000000E+000	1,834693718817737E-002	1,834693718817737E-002	0,0000000E+000	1,0000278E+000	0,0000000E+000	0,000000000000000E+000	9,9699974E-001
2	1	0	0	0	0	1	5,490574375508935E+003	4,171459716724543E-004	1,876408322230049E-002	1,0000278E+000	1,3580705E+001	13	1,876408315984983E-002	0	1,2583625E+001	1,6995409E-004	2,547993408982803E-004	0,000000000000000E+000	2,202817651525156E+004	0,000000000000000E+000	1,251437930168764E-002	0,000000000000000E+000	1,876408315984983E-002	1,876408315984983E-002	0,0000000E+000	1,0000278E+000	0,0000000E+000	0,000000000000000E+000	9,9707985E-001
2	1	0	0	0	0	1	5,610574374056087E+003	4,096059468743495E-004	1,917368917522207E-002	1,0000278E+000	1,3580985E+001	13	1,917368910672418E-002	0	1,2583985E+001	1,6688557E-004	2,603621931470670E-004	0,000000000000000E+000	2,250697733873311E+004	0,000000000000000E+000	1,228817855500435E-002	0,000000000000000E+000	1,917368910672418E-002	1,917368910672418E-002	0,0000000E+000	1,0000278E+000	0,0000000E+000	0,000000000000000E+000	9,9699974E-001
2	1	0	0	0	0	1	5,730574372603223E+003	4,023189833936695E-004	1,957600816457657E-002	1,0000278E+000	1,3581185E+001	13	1,957600809011785E-002	0	1,2584346E+001	1,6391906E-004	2,658261618266914E-004	0,000000000000000E+000	2,297773776961002E+004	0,000000000000000E+000	1,206956964793870E-002	0,000000000000000E+000	1,957600809011785E-002	1,957600809011785E-002	0,0000000E+000	1,0000278E+000	0,0000000E+000	0,000000000000000E+000	9,9683952E-001
2	1	0	0	0	0	1	5,850574371150360E+003	3,952353066858939E-004	1,997124347713316E-002	1,0000278E+000	1,3580665E+001	13	1,997124339680374E-002	0	1,2583825E+001	1,6102675E-004	2,711937199785871E-004	0,000000000000000E+000	2,344563373090059E+004	0,000000000000000E+000	1,185705934413253E-002	0,000000000000000E+000	1,997124339680374E-002	1,997124339680374E-002	0,0000000E+000	1,0000278E+000	0,0000000E+000	0,000000000000000E+000	9,9683952E-001
2	1	0	0	0	0	1	5,970574369697497E+003	3,880121385828695E-004	2,035925562147082E-002	1,0000278E+000	1,3582629E+001	13	2,035925553538661E-002	0	1,2585670E+001	1,5810675E-004	2,764639449835303E-004	0,000000000000000E+000	2,388584571065976E+004	0,000000000000000E+000	1,164036429841823E-002	0,000000000000000E+000	2,035925553538661E-002	2,035925553538661E-002	0,0000000E+000	1,0000278E+000	0,0000000E+000	0,000000000000000E+000	9,9695969E-001
2	1	0	0	0	0	1	6,090574368244634E+003	3,807228894269922E-004	2,073997851654463E-002	1,0000278E+000	1,3582669E+001	13	2,073997842481361E-002	0	1,2585830E+001	1,5513699E-004	2,816351780696120E-004	0,000000000000000E+000	2,433219905034171E+004	0,000000000000000E+000	1,142168682109434E-002	0,000000000000000E+000	2,073997842481361E-002	2,073997842481361E-002	0,0000000E+000	1,0000278E+000	0,0000000E+000	0,000000000000000E+000	9,9683952E-001
2	1	0	0	0	0	1	6,210574366791770E+003	3,736115409083561E-004	2,111359006300967E-002	1,0000278E+000	1,3583030E+001	13	2,111358996572196E-002	0	1,2586390E+001	1,5224330E-004	2,867099547435962E-004	0,000000000000000E+000	2,476761143645403E+004	0,000000000000000E+000	1,120834636295230E-002	0,000000000000000E+000	2,111358996572196E-002	2,111358996572196E-002	0,0000000E+000	1,0000278E+000	0,0000000E+000	0,000000000000000E+000	9,9663925E-001
2	1	0	0	0	0	1	6,330574365338907E+003	3,668500951603572E-004	2,148044016362230E-002	1,0000278E+000	1,3581507E+001	13	2,148044006088232E-002	0	1,2584667E+001	1,4947132E-004	2,916923317795971E-004	0,000000000000000E+000	2,521046179275494E+004	0,000000000000000E+000	1,100550298805647E-002	0,000000000000000E+000	2,148044006088232E-002	2,148044006088232E-002	0,0000000E+000	1,0000278E+000	0,0000000E+000	0,000000000000000E+000	9,9683952E-001
2	1	0	0	0	0	1	6,450574363886044E+003	3,601694216487101E-004	2,184060959063077E-002	1,0000278E+000	1,3582629E+001	13	2,184060948253103E-002	0	1,2585910E+001	1,4676143E-004	2,965843794843973E-004	0,000000000000000E+000	2,562379687311107E+004	0,000000000000000E+000	1,080508278028053E-002	0,000000000000000E+000	2,184060948253103E-002	2,184060948253103E-002	0,0000000E+000	1,0000278E+000	0,0000000E+000	0,000000000000000E+000	9,9671936E-001
2	1	0	0	0	0	1	6,570574362433181E+003	3,534518564948812E-004	2,219406145237329E-002	1,0000278E+000	1,3582188E+001	13	2,219406133902591E-002	0	1,2585629E+001	1,4401948E-004	3,013850289254663E-004	0,000000000000000E+000	2,604222040999030E+004	0,000000000000000E+000	1,060355582322574E-002	0,000000000000000E+000	2,219406133902591E-002	2,219406133902591E-002	0,0000000E+000	1,0000278E+000	0,0000000E+000	0,000000000000000E+000	9,9655819E-001
2	1	0	0	0	0	1	6,690574360980318E+003	3,466595770986751E-004	2,254072103462456E-002	1,0000278E+000	1,3583952E+001	13	2,254072091612458E-002	0	1,2586952E+001	1,4127021E-004	3,060940359638074E-004	0,000000000000000E+000	2,643378528895408E+004	0,000000000000000E+000	1,039978743887249E-002	0,000000000000000E+000	2,254072091612458E-002	2,254072091612458E-002	0,0000000E+000	1,0000278E+000	0,0000000E+000	0,000000000000000E+000	9,9699974E-001
2	1	0	0	0	0	1	6,810574359527454E+003	3,401105734880290E-004	2,288083161318902E-002	1,0000278E+000	1,3582870E+001	13	2,288083148961261E-002	0	1,2585990E+001	1,3859033E-004	3,107137135091750E-004	0,000000000000000E+000	2,684210179538979E+004	0,000000000000000E+000	1,020331732817441E-002	0,000000000000000E+000	2,288083148961261E-002	2,288083148961261E-002	0,0000000E+000	1,0000278E+000	0,0000000E+000	0,000000000000000E+000	9,9687958E-001
2	1	0	0	0	0	1	6,878409558706160E+003	1,894491405340118E-004	2,307028075655063E-002	1,0000278E+000	1,3581987E+001	13	2,307028063014662E-002	0	1,2584867E+001	1,3655366E-004	3,132868093452457E-004	0,000000000000000E+000	2,707213181011073E+004	0,000000000000000E+000	1,005402673213548E-002	0,000000000000000E+000	2,307028063014662E-002	2,307028063014662E-002	0,0000000E+000	1,0000278E+000	0,0000000E+000	0,000000000000000E+000	9,9711990E-001
2	1	0	0	0	0	1	6,878409758706155E+003	5,535909699069129E-010	2,307028131014160E-002	1,0000278E+000	1,3581627E+001	13	2,307028118373759E-002	0	1,2584787E+001	1,3533598E-004	3,132868168639117E-004	0,000000000000000E+000	2,707531396367148E+004	0,000000000000000E+000	9,964637710052356E-003	0,000000000000000E+000	2,307028118373759E-002	2,307028118373759E-002	0,0000000E+000	1,0000278E+000	0,0000000E+000	0,000000000000000E+000	9,9683952E-001
3	1	0	1	0	0	1	6,878458158705573E+003	0,000000000000000E+000	2,307028242057810E-002	1,0000278E+000	1,0514146E+001	13	2,307028118373759E-002	0	1,3597193E+001	0,0000000E+000	3,132868168639117E-004	0,000000000000000E+000	2,707531396367148E+004	0,000000000000000E+000	0,000000000000000E+000	0,000000000000000E+000	2,307028118373759E-002	2,307028118373759E-002	0,0000000E+000	0,0000000E+000	0,0000000E+000	0,000000000000000E+000	-3,0830469E+000
3	1	0	1	0	0	1	6,938360357980317E+003	0,000000000000000E+000	2,307028242057810E-002	0,0000000E+000	1,4459063E+001	14	2,307028118373759E-002	0	1,3582119E+001	0,0000000E+000	3,132868168639117E-004	0,000000000000000E+000	2,707531396367148E+004	0,000000000000000E+000	0,000000000000000E+000	0,000000000000000E+000	2,307028118373759E-002	2,307028118373759E-002	0,0000000E+000	0,0000000E+000	0,0000000E+000	0,000000000000000E+000	8,7694359E-001
3	1	0	1	0	0	1	6,938409957979718E+003	0,000000000000000E+000	2,307028242057810E-002	0,0000000E+000	1,4459103E+001	14	2,307028118373759E-002	0	1,3582039E+001	0,0000000E+000	3,132868168639117E-004	0,000000000000000E+000	2,707531396367148E+004	0,000000000000000E+000	0,000000000000000E+000	0,000000000000000E+000	2,307028118373759E-002	2,307028118373759E-002	0,0000000E+000	0,0000000E+000	0,0000000E+000	0,000000000000000E+000	8,7706375E-001