File: SAMPLE-MPT/20220309_SSB_Cell_03_Form01/20220309_(Form02C)EIS_charging_10bis16V_step_01V+(1C+EIS)50cycle_11_GEIS_C08.mpt
EC-Lab ASCII FILE
Nb header lines : 72

Galvano Electrochemical Impedance Spectroscopy

Run on channel : 8 (SN 14384)
User :
CE vs. WE compliance from -10 V to 10 V
Electrode connection : standard
Potential control : Ewe-Ece
Ewe ctrl range : min = 0,00 V, max = 5,00 V
Safety Limits :
	Do not start on E overload
Acquisition started on : 03/09/2022 13:55:05.456
Technique started on : 03/09/2022 21:04:16.430
Loaded Setting File :  C:\DATA\x_Data_VMP3\Extern\InES\Binbin\001_Testing_Profiles\20220308_(Form02C)EIS_charging_10bis16V_step_01V+(1C+EIS)50cycle.mps
Saved on :
	File : 20220309_(Form02C)EIS_charging_10bis16V_step_01V+(1C+EIS)50cycle_11_GEIS_C08.mpr
	Directory : C:\DATA\x_Data_VMP3\Extern\InES\Binbin\20220309_SSB_Cell_03_Form01\
	Host : 134.169.45.143
Device : VMP3 (SN 0787)
Address : 134.169.45.150
EC-Lab for windows v11.42 (software)
Internet server v11.40 (firmware)
Command interpretor v11.40 (firmware)
Electrode material :
Initial state :
Electrolyte :
Comments :
Electrode surface area : 0,000 cm²
Characteristic mass : 0,001 g
Equivalent Weight : 0,000 g/eq.
Density : 0,000 g/cm3
Volume (V) : 0,001 cm³
Record Ece
Record Power
Cycle Definition : Charge/Discharge alternance
Mode                Single sine
Is                  0,000
unit Is             µA
vs.                 <None>
tIs (h:m:s)         0:00:0,0000
record              0
dE (mV)             0,000
dt (s)              0,000
fi                  1,000
unit fi             MHz
ff                  5,000
unit ff             mHz
Nd                  6
Points              per decade
spacing             Logarithmic
Ia/Va               Ia
Ia                  5,000
unit  Ia            µA
va pourcent         0,10
pw                  0,10
Na                  2
corr                0
E range min (V)     0,000
E range max (V)     5,000
I Range             10 µA
Bandwidth           5
nc cycles           0
goto Ns'            0
nr cycles           0
inc. cycle          0

Number of loops : 1
Loop 0 from point number 0 to 49

freq/Hz	Re(Z)/Ohm	-Im(Z)/Ohm	|Z|/Ohm	Phase(Z)/deg	time/s	<Ewe>/V	<I>/mA	Cs/µF	Cp/µF	cycle number	|Ewe|/V	|I|/A	Ns	I Range	(Q-Qo)/mA.h	<Ece>/V	|Ece|/V	Phase(Zce)/deg	|Zce|/Ohm	Re(Zce)/Ohm	-Im(Zce)/Ohm	Phase(Zwe-ce)/deg	|Zwe-ce|/Ohm	Re(Zwe-ce)/Ohm	-Im(Zwe-ce)/Ohm	P/W	Re(Y)/Ohm-1	Im(Y)/Ohm-1	|Y|/Ohm-1	Phase(Y)/deg	dq/mA.h
1,0000186E+006	-2,5951643E+001	4,7875320E+001	5,4456718E+001	-1,1846067E+002	2,575097364445112E+004	1,3577649E+001	1,2269052E-005	3,3243012E-003	2,5693355E-003	1,000000000000000E+000	2,8070188E-004	5,1545867E-006	0	14	1,012774827432376E-009	1,2201347E+001	2,0795876E-004	4,5361740E+001	4,0344410E+001	2,8347126E+001	-2,8707348E+001	-8,2876495E+001	1,9317078E+001	2,3954830E+000	1,9167973E+001	0,0000000E+000	-8,7510860E-003	1,6143912E-002	1,8363208E-002	1,1846067E+002	1,012774827432376E-009
6,7700600E+005	-1,5824305E+001	3,5317596E+001	3,8700661E+001	-1,1413511E+002	2,575148964447563E+004	1,3577551E+001	1,3207280E-005	6,6563557E-003	5,5434741E-003	1,000000000000000E+000	1,9826058E-004	5,1229249E-006	0	14	3,267866166270197E-009	1,2200826E+001	1,3727129E-004	2,5773361E+001	2,6795490E+001	2,4129902E+001	-1,1651013E+001	-7,0661888E+001	2,5081669E+001	8,3055973E+000	2,3666584E+001	0,0000000E+000	-1,0565447E-002	2,3580575E-002	2,5839353E-002	1,1413511E+002	2,255091338837821E-009
4,5833025E+005	-2,4086165E+000	3,6196003E+001	3,6276054E+001	-9,3807060E+001	2,575187464449392E+004	1,3577611E+001	1,3752920E-005	9,5935864E-003	9,5512923E-003	1,000000000000000E+000	1,8813841E-004	5,1862976E-006	0	14	3,750949870070346E-009	1,2201227E+001	1,3766489E-004	-4,0262514E-001	2,6543962E+001	2,6543306E+001	1,8652645E-001	-5,6441326E+001	4,3659725E+001	2,4134689E+001	3,6382530E+001	0,0000000E+000	-1,8303219E-003	2,7505564E-002	2,7566394E-002	9,3807060E+001	4,830837038001491E-010
3,1029172E+005	1,2828715E+001	3,7512554E+001	3,9645527E+001	-7,1120102E+001	2,575225964451220E+004	1,3577621E+001	1,4383305E-005	1,3673299E-002	1,2241600E-002	1,000000000000000E+000	1,9268655E-004	4,8602342E-006	0	14	1,830530314540132E-010	1,2200585E+001	1,8724689E-004	-1,1783378E+001	3,8526310E+001	3,7714432E+001	7,8675370E+000	-4,1919037E+001	6,7926155E+001	5,0543148E+001	4,5380093E+001	0,0000000E+000	8,1619667E-003	2,3866475E-002	2,5223527E-002	7,1120102E+001	-3,567896838616333E-009
2,1007459E+005	2,7252556E+001	1,2430760E+001	2,9953724E+001	-2,4519243E+001	2,575264464453049E+004	1,3577599E+001	1,7298018E-005	6,0946513E-002	1,0496455E-002	1,000000000000000E+000	1,4409205E-004	4,8104885E-006	0	14	5,742774324820250E-009	1,2201267E+001	1,5957977E-004	-9,2322292E+000	3,3173298E+001	3,2743576E+001	5,3222055E+000	-1,6483583E+001	6,2567593E+001	5,9996132E+001	1,7752966E+001	0,0000000E+000	3,0374251E-002	1,3854666E-002	3,3384830E-002	2,4519243E+001	5,559721293366238E-009
1,4222091E+005	1,9235016E+001	-5,3650284E+000	1,9969210E+001	1,5584844E+001	2,575289864454255E+004	1,3577634E+001	1,9289771E-005	-2,0858577E-001	-1,5055908E-002	1,000000000000000E+000	9,7431104E-005	4,8790666E-006	0	14	5,909319688170298E-009	1,2200385E+001	1,8096590E-004	-2,3762562E+001	3,7090271E+001	3,3945873E+001	1,4945426E+001	-1,0212152E+001	5,4036942E+001	5,3180889E+001	9,5803976E+000	0,0000000E+000	4,8235945E-002	-1,3453964E-002	5,0077096E-002	-1,5584844E+001	1,665453633500472E-010
9,6283031E+004	1,0190037E+001	-6,3928161E+000	1,2029337E+001	3,2102493E+001	2,575315264455462E+004	1,3577543E+001	1,8304887E-005	-2,5857002E-001	-7,3026285E-002	1,000000000000000E+000	5,7795638E-005	4,8045572E-006	0	14	1,331453201257520E-008	1,2202510E+001	2,3593938E-004	-3,6319214E+001	4,9107414E+001	3,9567303E+001	2,9085506E+001	-2,4516172E+001	5,4687759E+001	4,9757339E+001	2,2692690E+001	0,0000000E+000	7,0419408E-002	-4,4178281E-002	8,3130099E-002	-3,2102493E+001	7,405212324404904E-009
6,5181484E+004	5,4626822E+000	-6,0980105E+000	8,1869793E+000	4,8145576E+001	2,575353764457291E+004	1,3577614E+001	1,6489646E-005	-4,0041256E-001	-2,2214507E-001	1,000000000000000E+000	3,9793536E-005	4,8605884E-006	0	14	1,584804036674036E-008	1,2199903E+001	2,8227002E-004	-3,6653751E+001	5,8073219E+001	4,6589691E+001	3,4668423E+001	-2,8761423E+001	5,9377754E+001	5,2052372E+001	2,8570412E+001	0,0000000E+000	8,1500180E-002	-9,0978920E-002	1,2214518E-001	-4,8145576E+001	2,533508354165153E-009
4,4128563E+004	3,4624305E+000	-2,1256592E+000	4,0628624E+000	3,1546642E+001	2,575392264459119E+004	1,3577533E+001	1,4281434E-005	-1,6967064E+000	-4,6444017E-001	1,000000000000000E+000	1,9480971E-005	4,7948884E-006	0	14	1,480837990288819E-008	1,2202188E+001	3,6050801E-004	-3,7992336E+001	7,5185905E+001	5,9253494E+001	4,6281139E+001	-3,5147663E+001	7,6700676E+001	6,2715923E+001	4,4155479E+001	0,0000000E+000	2,0975718E-001	-1,2877436E-001	2,4613190E-001	-3,1546642E+001	-1,039660463852163E-009
2,9876783E+004	1,0253137E+000	-4,7052693E-001	1,1281240E+000	2,4650873E+001	2,575430764460948E+004	1,3577566E+001	1,3776495E-005	-1,1321444E+001	-1,9695052E+000	1,000000000000000E+000	5,3397121E-006	4,7332669E-006	0	14	1,858683090596161E-008	1,2200185E+001	4,1228152E-004	-3,6535873E+001	8,7102951E+001	6,9985855E+001	5,1854649E+001	-3,5889732E+001	8,7652237E+001	7,1011169E+001	5,1384121E+001	0,0000000E+000	8,0564386E-001	-3,6971819E-001	8,8642740E-001	-2,4650873E+001	3,778451003073415E-009
2,0227139E+004	-7,2845727E-002	-2,1042264E+000	2,1054869E+000	9,1982719E+001	2,575469264462776E+004	1,3577501E+001	1,4580737E-005	-3,7393253E+000	-3,7348492E+000	1,000000000000000E+000	9,9151684E-006	4,7092049E-006	0	14	1,426541315752022E-008	1,2202870E+001	4,8661570E-004	-3,4278362E+001	1,0333288E+002	8,5385101E+001	5,8198528E+001	-3,3325623E+001	1,0210168E+002	8,5312256E+001	5,6094303E+001	0,0000000E+000	-1,6432339E-002	-4,7466519E-001	4,7494954E-001	-9,1982719E+001	-4,321417748441389E-009
1,3695073E+004	-1,2837763E-001	1,3530599E+000	1,3591365E+000	-9,5419968E+001	2,575507764464605E+004	1,3577538E+001	1,6092927E-005	8,5889244E+000	8,5122957E+000	1,000000000000000E+000	6,4125711E-006	4,7181215E-006	0	14	1,685796567395907E-008	1,2200585E+001	5,8703410E-004	-3,3281441E+001	1,2442115E+002	1,0401424E+002	6,8276367E+001	-3,3831944E+001	1,2506210E+002	1,0388586E+002	6,9629425E+001	0,0000000E+000	-6,9496527E-002	7,3247176E-001	7,3576128E-001	9,5419968E+001	2,592552516438848E-009
9,2692256E+003	-9,5150018E-001	-1,9534539E+000	2,1728632E+000	1,1597007E+002	2,575546264466434E+004	1,3577466E+001	1,4059386E-005	-8,7896891E+000	-7,1041980E+000	1,000000000000000E+000	1,0328889E-005	4,7535846E-006	0	14	1,831665829268382E-008	1,2202229E+001	6,7730009E-004	-3,0196455E+001	1,4248196E+002	1,2314801E+002	7,1663651E+001	-2,9703728E+001	1,4068227E+002	1,2219651E+002	6,9710197E+001	0,0000000E+000	-2,0153205E-001	-4,1375035E-001	4,6022224E-001	-1,1597007E+002	1,458692618724753E-009
6,2722681E+003	1,1968646E+000	-3,7802687E+000	3,9652133E+000	7,2431778E+001	2,575584764468262E+004	1,3577292E+001	1,4279198E-005	-6,7123227E+000	-6,1007757E+000	1,000000000000000E+000	1,9061048E-005	4,8070674E-006	0	14	1,972003646455455E-008	1,2200385E+001	7,7542214E-004	-2,8499390E+001	1,6130878E+002	1,4176173E+002	7,6968384E+001	-2,7110323E+001	1,6060405E+002	1,4295860E+002	7,3188118E+001	0,0000000E+000	7,6122306E-002	-2,4043050E-001	2,5219324E-001	-7,2431778E+001	1,403378171870728E-009
4,2448467E+003	-5,3492826E-001	-1,9547839E+000	2,0266545E+000	1,0530436E+002	2,575627364470286E+004	1,3577386E+001	1,2566969E-005	-1,9180475E+001	-1,7844215E+001	1,000000000000000E+000	9,8616383E-006	4,8659695E-006	0	14	1,918640227290780E-008	1,2202550E+001	8,7357359E-004	-2,6185776E+001	1,7952715E+002	1,6110191E+002	7,9222290E+001	-2,5697636E+001	1,7819098E+002	1,6056699E+002	7,7267509E+001	0,0000000E+000	-1,3023752E-001	-4,7592589E-001	4,9342403E-001	-1,0530436E+002	-5,336341916467489E-010
2,8779956E+003	1,2820883E+000	-1,1446253E+000	1,7186965E+000	4,1757900E+001	2,575667464472190E+004	1,3577371E+001	6,7701071E-006	-4,8313293E+001	-2,1428658E+001	1,000000000000000E+000	7,8982985E-006	4,5955167E-006	0	14	1,642188453771117E-008	1,2202390E+001	9,1482617E-004	-2,3546135E+001	1,9906927E+002	1,8249451E+002	7,9525658E+001	-2,3098331E+001	1,9979346E+002	1,8377660E+002	7,8381035E+001	0,0000000E+000	4,3402982E-001	-3,8749397E-001	5,8183628E-001	-4,1757900E+001	-2,764517735196630E-009
1,9481171E+003	3,8275869E+000	-2,4146543E+000	4,5255914E+000	3,2246002E+001	2,575735064475401E+004	1,3577361E+001	6,9044650E-006	-3,3833748E+001	-9,6318417E+000	1,000000000000000E+000	2,2138438E-005	4,8918332E-006	0	14	2,106929692159712E-008	1,2200465E+001	1,0777710E-003	-2,0689171E+001	2,2032047E+002	2,0611218E+002	7,7838783E+001	-1,9761614E+001	2,2307736E+002	2,0993977E+002	7,5424126E+001	0,0000000E+000	1,8688498E-001	-1,1789741E-001	2,2096559E-001	-3,2246002E+001	4,647412383885947E-009
1,3187339E+003	2,3118322E+000	-1,1880189E+000	2,5992224E+000	2,7198011E+001	2,575779664477520E+004	1,3577330E+001	5,4989987E-006	-1,0158734E+002	-2,1222641E+001	1,000000000000000E+000	1,2529554E-005	4,8205006E-006	0	14	1,970776409991181E-008	1,2200866E+001	1,1531659E-003	-1,9717772E+001	2,3922119E+002	2,2519469E+002	8,0710182E+001	-1,9266459E+001	2,4100412E+002	2,2750652E+002	7,9522163E+001	0,0000000E+000	3,4219167E-001	-1,7584762E-001	3,8473046E-001	-2,7198011E+001	-1,361532821685310E-009
8,9299957E+002	2,4028802E+000	2,2805941E+000	3,3128450E+000	-4,3504341E+001	2,575824164479633E+004	1,3577432E+001	5,9901286E-006	7,8148544E+001	3,7035194E+001	1,000000000000000E+000	1,5867070E-005	4,7895601E-006	0	14	1,961668017650532E-008	1,2201387E+001	1,2375307E-003	-1,7876453E+001	2,5838089E+002	2,4590642E+002	7,9314026E+001	-1,8190561E+001	2,6137173E+002	2,4830930E+002	8,1594620E+001	0,0000000E+000	2,1894239E-001	2,0780011E-001	3,0185536E-001	4,3504341E+001	-9,108392340648419E-011
6,0441974E+002	2,6301286E+000	2,0282698E+000	3,3213634E+000	-3,7638241E+001	2,575868664481747E+004	1,3577381E+001	7,5814382E-006	1,2982423E+002	4,8414383E+001	1,000000000000000E+000	1,5854257E-005	4,7734184E-006	0	14	1,870048308465913E-008	1,2202068E+001	1,3098557E-003	-1,6042475E+001	2,7440622E+002	2,6372003E+002	7,5832130E+001	-1,6294880E+001	2,7749710E+002	2,6635016E+002	7,7860397E+001	0,0000000E+000	2,3842084E-001	1,8386240E-001	3,0108118E-001	3,7638241E+001	-9,161970918461942E-010
4,0908368E+002	3,4380090E+000	4,3979597E-001	3,4660246E+000	-7,2897825E+000	2,575913164483861E+004	1,3577384E+001	8,1330190E-006	8,8461993E+002	1,4242818E+001	1,000000000000000E+000	1,6514357E-005	4,7646395E-006	0	14	1,972253405192722E-008	1,2200746E+001	1,4006444E-003	-1,5021208E+001	2,9396652E+002	2,8392166E+002	7,6189232E+001	-1,4931376E+001	2,9740140E+002	2,8735968E+002	7,6629028E+001	0,0000000E+000	2,8618294E-001	3,6609009E-002	2,8851497E-001	7,2897825E+000	1,022050967268090E-009
2,7686047E+002	1,4305296E+000	-1,9437244E-002	1,4306617E+000	7,7845544E-001	2,575957264485955E+004	1,3577416E+001	6,2323315E-006	-2,9574982E+004	-5,4590864E+000	1,000000000000000E+000	6,8124987E-006	4,7617818E-006	0	14	1,885946133282030E-008	1,2203993E+001	1,4824253E-003	-1,3935944E+001	3,1131735E+002	3,0215390E+002	7,4976730E+001	-1,3869361E+001	3,1270132E+002	3,0358444E+002	7,4957291E+001	0,0000000E+000	6,9891280E-001	-9,4964402E-003	6,9897729E-001	-7,7845544E-001	-8,630727191069168E-010
1,8742110E+002	-2,3963811E+000	4,3138366E+000	4,9347572E+000	-1,1905263E+002	2,576002364488097E+004	1,3577370E+001	7,0514989E-006	1,9685117E+002	1,5042976E+002	1,000000000000000E+000	2,3487471E-005	4,7596004E-006	0	14	2,519448778401865E-008	1,2202630E+001	1,5649804E-003	-1,2324529E+001	3,2880499E+002	3,2122745E+002	7,0182983E+001	-1,3151559E+001	3,2741873E+002	3,1883105E+002	7,4496819E+001	0,0000000E+000	-9,8406620E-002	1,7714632E-001	2,0264421E-001	1,1905263E+002	6,335026451198346E-009
1,2699121E+002	1,2898573E+001	7,1430902E+000	1,4744386E+001	-2,8977211E+001	2,576046164490178E+004	1,3577382E+001	6,2192717E-006	1,7545282E+002	4,1179325E+001	1,000000000000000E+000	7,0169888E-005	4,7590920E-006	0	14	2,332858945313395E-008	1,2200665E+001	1,6387948E-003	-1,1718919E+001	3,4435031E+002	3,3717261E+002	6,9941208E+001	-1,2418134E+001	3,5845755E+002	3,5007117E+002	7,7084297E+001	0,0000000E+000	5,9331905E-002	3,2857370E-002	6,7822427E-002	2,8977211E+001	-1,865898330884698E-009
8,5907173E+001	-9,7273388E+000	-1,0115212E+001	1,4033483E+001	1,3388016E+002	2,576090264492272E+004	1,3577348E+001	6,6241846E-006	-1,8315369E+002	-9,5155693E+001	1,000000000000000E+000	6,6765191E-005	4,7575641E-006	0	14	2,513185263137530E-008	1,2201066E+001	1,8008198E-003	-1,2319360E+001	3,7851718E+002	3,6980127E+002	8,0760620E+001	-1,1100262E+001	3,6693872E+002	3,6007394E+002	7,0645409E+001	0,0000000E+000	-4,9392749E-002	-5,1362246E-002	7,1258150E-002	-1,3388016E+002	1,803263178241349E-009
5,8157570E+001	-2,5670519E+000	-7,5281601E+000	7,9538012E+000	1,0882903E+002	2,576136164494453E+004	1,3577394E+001	6,3991520E-006	-3,6351724E+002	-3,2565164E+002	1,000000000000000E+000	3,7843649E-005	4,7579324E-006	0	14	2,145655952506331E-008	1,2202148E+001	1,8163071E-003	-1,1770378E+001	3,8174292E+002	3,7371600E+002	7,7871719E+001	-1,0731929E+001	3,7775623E+002	3,7114896E+002	7,0343559E+001	0,0000000E+000	-4,0577494E-002	-1,1899792E-001	1,2572604E-001	-1,0882903E+002	-3,675293106311984E-009
3,9407314E+001	-3,3595483E+000	5,3545413E+000	6,3212085E+000	-1,2210500E+002	2,576181164496590E+004	1,3577340E+001	6,4043761E-006	7,5425995E+002	5,4120941E+002	1,000000000000000E+000	3,0079465E-005	4,7584990E-006	0	14	1,925766321824085E-008	1,2204515E+001	1,8988173E-003	-9,7389479E+000	3,9903702E+002	3,9328638E+002	6,7500862E+001	-1,0583329E+001	3,9667471E+002	3,8992682E+002	7,2855400E+001	0,0000000E+000	-8,4077664E-002	1,3400532E-001	1,5819760E-001	1,2210500E+002	-2,198896306822464E-009
2,6682035E+001	1,5693924E+001	4,2025127E+000	1,6246857E+001	-1,4990933E+001	2,576223064498580E+004	1,3577396E+001	5,2970968E-006	1,4193585E+003	9,4966736E+001	1,000000000000000E+000	7,7309996E-005	4,7584585E-006	0	14	1,935160236323302E-008	1,2200946E+001	1,9117623E-003	-9,6302166E+000	4,0176083E+002	3,9609921E+002	6,7210052E+001	-9,8383036E+000	4,1793942E+002	4,1179315E+002	7,1412567E+001	0,0000000E+000	5,9455611E-002	1,5920999E-002	6,1550368E-002	1,4990933E+001	9,393914499216619E-011
1,8042725E+001	-5,8080834E-001	-6,9975071E+000	7,0215697E+000	9,4744797E+001	2,576272064500907E+004	1,3577415E+001	1,0423702E-005	-1,2605923E+003	-1,2519672E+003	1,000000000000000E+000	3,3406162E-005	4,7576486E-006	0	14	1,820195150892485E-008	1,2203312E+001	2,0441627E-003	-1,1041435E+001	4,2965820E+002	4,2170477E+002	8,2287643E+001	-1,0136462E+001	4,2780136E+002	4,2112396E+002	7,5290138E+001	0,0000000E+000	-1,1780514E-002	-1,4193024E-001	1,4241830E-001	-9,4744797E+001	-1,149650854308167E-009
1,2226137E+001	6,8962102E+000	-3,7315116E+000	7,8410392E+000	2,8417641E+001	2,576308864502655E+004	1,3577402E+001	7,0212673E-006	-3,4885591E+003	-7,9007520E+002	1,000000000000000E+000	3,7308429E-005	4,7580975E-006	0	14	4,981263003279916E-008	1,2200064E+001	2,1604267E-003	-1,0635263E+001	4,5405264E+002	4,4625290E+002	8,3798264E+001	-1,0020150E+001	4,6016824E+002	4,5314911E+002	8,0066750E+001	0,0000000E+000	1,1216652E-001	-6,0692854E-002	1,2753412E-001	-2,8417641E+001	3,161067852387431E-008
8,2759562E+000	6,3325429E+000	-2,5148873E+000	6,8136449E+000	2,1659861E+001	2,576362064505182E+004	1,3577417E+001	9,4254001E-006	-7,6468647E+003	-1,0417451E+003	1,000000000000000E+000	3,2421613E-005	4,7583362E-006	0	14	1,294488423468465E-008	1,2203472E+001	2,2040701E-003	-1,0939015E+001	4,6320184E+002	4,5478534E+002	8,7899063E+001	-1,0490513E+001	4,6895645E+002	4,6111789E+002	8,5384178E+001	0,0000000E+000	1,3640149E-001	-5,4170087E-002	1,4676432E-001	-2,1659861E+001	-3,686774579811451E-008
5,6043758E+000	1,2913135E+000	-5,7160807E+000	5,8601255E+000	7,7270058E+001	2,576401964507077E+004	1,3577403E+001	7,1906952E-006	-4,9681479E+003	-4,7269106E+003	1,000000000000000E+000	2,7877486E-005	4,7571484E-006	0	14	3,800202235109080E-009	1,2200746E+001	2,3276825E-003	-1,0642104E+001	4,8930203E+002	4,8088599E+002	9,0361176E+001	-9,9566889E+000	4,8955057E+002	4,8217731E+002	8,4645096E+001	0,0000000E+000	3,7602603E-002	-1,6645028E-001	1,7064480E-001	-7,7270058E+001	-9,144681999575570E-009
3,7924759E+000	6,3868175E+000	6,7692035E-001	6,4225898E+000	-6,0500278E+000	2,576459864509827E+004	1,3577427E+001	6,5879840E-006	6,1995438E+004	6,8867529E+002	1,000000000000000E+000	3,0556534E-005	4,7576655E-006	0	14	6,109339225001047E-008	1,2199303E+001	2,4472736E-003	-1,1523336E+001	5,1438538E+002	5,0401712E+002	1,0275725E+002	-1,1455939E+001	5,2077905E+002	5,1040393E+002	1,0343417E+002	0,0000000E+000	1,5483321E-001	1,6410327E-002	1,5570043E-001	6,0500278E+000	5,729319001490138E-008
2,5682116E+000	5,5868106E+000	-2,5833752E+000	6,1551833E+000	2,4816107E+001	2,576544064513827E+004	1,3577406E+001	6,4161909E-006	-2,3988430E+004	-4,2256631E+003	1,000000000000000E+000	2,9285457E-005	4,7578528E-006	0	14	1,145891612569206E-007	1,2200706E+001	2,5498779E-003	-1,1664080E+001	5,3593036E+002	5,2486328E+002	1,0835084E+002	-1,1276428E+001	5,4089191E+002	5,3045007E+002	1,0576746E+002	0,0000000E+000	1,4746262E-001	-6,8187609E-002	1,6246469E-001	-2,4816107E+001	5,349576900691015E-008
1,7399776E+000	8,8453331E+000	-4,6704274E-001	8,8576546E+000	3,0224698E+000	2,576667264519678E+004	1,3577483E+001	7,3908573E-006	-1,9584831E+005	-5,4449713E+002	1,000000000000000E+000	4,2138512E-005	4,7572989E-006	0	14	9,395317825505522E-008	1,2204474E+001	2,6635795E-003	-1,2077318E+001	5,5989325E+002	5,4750067E+002	1,1714729E+002	-1,1844745E+001	5,6844977E+002	5,5634601E+002	1,1668024E+002	0,0000000E+000	1,1273966E-001	-5,9527708E-003	1,1289670E-001	-3,0224698E+000	-2,063598300186540E-008
1,1772907E+000	-1,8121206E+000	1,9872453E+000	2,6894097E+000	-1,3236093E+002	2,576848164528271E+004	1,3577434E+001	7,2836506E-006	6,8027570E+004	3,7142742E+004	1,000000000000000E+000	1,2795415E-005	4,7577041E-006	0	14	-2,325681316425390E-008	1,2205637E+001	2,8576432E-003	-1,1682015E+001	6,0063489E+002	5,8819360E+002	1,2161651E+002	-1,1903162E+001	5,9926715E+002	5,8638147E+002	1,2360375E+002	0,0000000E+000	-2,5053775E-001	2,7474985E-001	3,7182879E-001	1,3236093E+002	-1,172099914193091E-007
7,9621863E-001	4,4863968E+000	3,2760866E+000	5,5552225E+000	-3,6137917E+001	2,577114664540929E+004	1,3577421E+001	7,3303308E-006	6,1014418E+004	2,1219750E+004	1,000000000000000E+000	2,6429494E-005	4,7575941E-006	0	14	-1,976556700587682E-007	1,2205677E+001	3,0175084E-003	-1,1693227E+001	6,3425092E+002	6,2108813E+002	1,2854460E+002	-1,1899252E+001	6,3931226E+002	6,2557452E+002	1,3182069E+002	0,0000000E+000	1,4537668E-001	1,0615794E-001	1,8001080E-001	3,6137917E+001	-1,743988568945143E-007
5,3938830E-001	9,4778643E+000	7,4282713E+000	1,2041973E+001	-3,8087555E+001	2,577507064559567E+004	1,3577306E+001	8,5967322E-006	3,9721977E+004	1,5115101E+004	1,000000000000000E+000	5,7287201E-005	4,7572935E-006	0	14	-3,296854034179672E-007	1,2203953E+001	3,2537621E-003	-1,2482902E+001	6,8395239E+002	6,6778412E+002	1,4783511E+002	-1,2912031E+001	6,9483124E+002	6,7726196E+002	1,5526338E+002	0,0000000E+000	6,5360472E-002	5,1226232E-002	8,3042867E-002	3,8087555E+001	-1,320297333591990E-007
3,6507010E-001	1,4336192E+001	-2,7872922E+000	1,4604636E+001	1,1002383E+001	2,578085964587063E+004	1,3577360E+001	7,3048982E-006	-1,5640886E+005	-5,6969824E+003	1,000000000000000E+000	6,9482972E-005	4,7575968E-006	0	14	-2,329465339481531E-007	1,2203432E+001	3,5633356E-003	-1,3988504E+001	7,4897809E+002	7,2676660E+002	1,8104839E+002	-1,3524709E+001	7,6224036E+002	7,4110278E+002	1,7826109E+002	0,0000000E+000	6,7212850E-002	-1,3067757E-002	6,8471409E-002	-1,1002383E+001	9,673886946981408E-008
2,4724665E-001	7,6542101E+000	-1,1277731E-001	7,6550407E+000	8,4413624E-001	2,578939964627626E+004	1,3577353E+001	6,8501622E-006	-5,7077905E+006	-1,2388435E+003	1,000000000000000E+000	3,6419675E-005	4,7576068E-006	0	14	2,506999195614601E-007	1,2201066E+001	3,7322030E-003	-1,5231476E+001	7,8447070E+002	7,5691406E+002	2,0609557E+002	-1,5078094E+001	7,9182928E+002	7,6456830E+002	2,0598279E+002	0,0000000E+000	1,3061871E-001	-1,9245389E-003	1,3063288E-001	-8,4413624E-001	4,836464535096133E-007
1,6750640E-001	4,7828498E+000	-2,0728586E+000	5,2127147E+000	2,3431622E+001	2,580199764687463E+004	1,3577517E+001	6,9507305E-006	-4,5837303E+005	-7,2482055E+004	1,000000000000000E+000	2,4799010E-005	4,7574081E-006	0	14	1,101072733210155E-006	1,2202310E+001	3,8471336E-003	-1,6578033E+001	8,0866168E+002	7,7504724E+002	2,3072812E+002	-1,6341751E+001	8,1266119E+002	7,7983008E+002	2,2865526E+002	0,0000000E+000	1,7601871E-001	-7,6285459E-002	1,9183862E-001	-2,3431622E+001	8,503728136486947E-007
1,1320493E-001	1,2331363E+001	-2,7777905E+000	1,2640357E+001	1,2694685E+001	2,582063064775965E+004	1,3577461E+001	6,8798186E-006	-5,0612209E+005	-2,4441936E+004	1,000000000000000E+000	6,0135306E-005	4,7574058E-006	0	14	1,971288019003901E-006	1,2204875E+001	3,9913724E-003	-1,6684229E+001	8,3898083E+002	8,0366107E+002	2,4086877E+002	-1,6266235E+001	8,5001819E+002	8,1599243E+002	2,3809099E+002	0,0000000E+000	7,7177800E-002	-1,7385244E-002	7,9111688E-002	-1,2694685E+001	8,702152857937461E-007
7,6773763E-002	8,6730375E+000	1,1278866E+001	1,4227944E+001	-5,2441025E+001	2,584809664906422E+004	1,3577481E+001	6,8062582E-006	1,8379847E+005	1,1550171E+005	1,000000000000000E+000	6,7689172E-005	4,7574808E-006	0	14	2,124159983810601E-006	1,2211490E+001	4,1627781E-003	-1,4778272E+001	8,7499628E+002	8,4605157E+002	2,2319325E+002	-1,5340277E+001	8,8630206E+002	8,5472461E+002	2,3447212E+002	0,0000000E+000	4,2843696E-002	5,5716153E-002	7,0284225E-002	5,2441025E+001	1,528719648067004E-007
5,1879965E-002	-1,1204008E+001	-9,1284275E+000	1,4451920E+001	1,4082869E+002	2,588873465099442E+004	1,3577301E+001	6,0760490E-006	-3,3606594E+005	-1,3408042E+005	1,000000000000000E+000	6,8761954E-005	4,7579806E-006	0	14	7,863281335864940E-007	1,2216021E+001	4,6317736E-003	-1,2550056E+001	9,7347467E+002	9,5021497E+002	2,1152872E+002	-1,2163791E+001	9,6057666E+002	9,3901099E+002	2,0240028E+002	0,0000000E+000	-5,3644143E-002	-4,3706384E-002	6,9194958E-002	-1,4082869E+002	-1,337831850224107E-006
3,5195883E-002	6,9881272E+000	-5,1341605E+000	8,6714201E+000	3,6304638E+001	2,594862865383923E+004	1,3577091E+001	6,7128021E-006	-8,8076250E+005	-3,0875731E+005	1,000000000000000E+000	4,1253385E-005	4,7573967E-006	0	14	-2,843101595476128E-006	1,2222435E+001	5,3571844E-003	-9,5898199E+000	1,1260748E+003	1,1103386E+003	1,8759682E+002	-9,2746973E+000	1,1321271E+003	1,1173268E+003	1,8246266E+002	0,0000000E+000	9,2935227E-002	-6,8279296E-002	1,1532137E-001	-3,6304638E+001	-3,629429729062622E-006
2,3795672E-002	3,2987312E+001	4,5892935E+000	3,3305019E+001	-7,9203215E+000	2,603720865804655E+004	1,3576434E+001	6,8189238E-006	1,4573918E+006	2,7672514E+004	1,000000000000000E+000	1,5844632E-004	4,7574308E-006	0	14	-7,880667151766451E-006	1,2229972E+001	6,6956519E-003	-1,0445608E+001	1,4074092E+003	1,3840848E+003	2,5516612E+002	-1,0387248E+001	1,4406826E+003	1,4170721E+003	2,5975540E+002	0,0000000E+000	2,9739080E-002	4,1373898E-003	3,0025505E-002	7,9203215E+000	-5,037565556290323E-006
1,6098291E-002	3,5465608E+000	-1,6917900E+001	1,7285643E+001	7,8160324E+001	2,616813466426521E+004	1,3576477E+001	6,6608181E-006	-5,8437806E+005	-5,5977788E+005	1,000000000000000E+000	8,2234488E-005	4,7573867E-006	0	14	-1,118564185624916E-005	1,2234782E+001	8,4002027E-003	-1,5167692E+001	1,7657179E+003	1,7042076E+003	4,6199121E+002	-1,4607435E+001	1,7647987E+003	1,7077542E+003	4,4507330E+002	0,0000000E+000	1,1869610E-002	-5,6620721E-002	5,7851478E-002	-7,8160324E+001	-3,304974704482712E-006
1,0915886E-002	5,8702941E+000	-8,4833870E+000	1,0316404E+001	5,5317722E+001	2,636121167343587E+004	1,3577060E+001	6,7010242E-006	-1,7186675E+006	-1,1621808E+006	1,000000000000000E+000	4,9078695E-005	4,7573449E-006	0	14	-7,557327257467572E-006	1,2241318E+001	1,0327233E-002	-2,2299652E+001	2,1707976E+003	2,0084480E+003	8,2371033E+002	-2,2033970E+001	2,1730332E+003	2,0143182E+003	8,1522693E+002	0,0000000E+000	5,5157319E-002	-7,9709955E-002	9,6933000E-002	-5,5317722E+001	3,628314598781591E-006
7,3873415E-003	2,5472798E+000	7,5923257E+000	8,0082483E+000	-7,1453026E+001	2,664650368698651E+004	1,3576553E+001	6,6591192E-006	2,8376388E+006	2,5505375E+006	1,000000000000000E+000	3,8098933E-005	4,7574617E-006	0	14	8,025302331149797E-006	1,2248694E+001	1,2167750E-002	-2,9580597E+001	2,5576138E+003	2,2242600E+003	1,2625593E+003	-2,9700060E+001	2,5635828E+003	2,2268074E+003	1,2701516E+003	0,0000000E+000	3,9719302E-002	1,1838584E-001	1,2487125E-001	7,1453026E+001	1,558262958861737E-005
5,0018891E-003	-4,6150360E+000	-1,3889678E+001	1,4636315E+001	1,0837978E+002	2,706784570699919E+004	1,3576643E+001	6,3256057E-006	-2,2908353E+006	-2,0630736E+006	1,000000000000000E+000	6,9625828E-005	4,7570597E-006	0	14	3,615813437557527E-005	1,2263367E+001	1,4416868E-002	-3,3876152E+001	3,0306257E+003	2,5161599E+003	1,6892697E+003	-3,3706123E+001	3,0190654E+003	2,5115449E+003	1,6753800E+003	0,0000000E+000	-2,1543270E-002	-6,4837866E-002	6,8323210E-002	-1,0837978E+002	2,813283204442547E-005