File: SAMPLE-MPT/20220309_SSB_Cell_03_Form01/20220309_(Form02C)EIS_charging_10bis16V_step_01V+(1C+EIS)50cycle_10_GCPL6_C08.mpt
EC-Lab ASCII FILE
Nb header lines : 76

Galvanostatic Cycling with Potential Limitation 6

Run on channel : 8 (SN 14384)
User :
CE vs. WE compliance from -10 V to 10 V
Electrode connection : standard
Potential control : Ewe-Ece
Ecell ctrl range : min = 0,00 V, max = 5,00 V
Safety Limits :
	Do not start on E overload
Acquisition started on : 03/09/2022 13:55:05.456
Technique started on : 03/09/2022 20:08:57.843
Loaded Setting File :  C:\DATA\x_Data_VMP3\Extern\InES\Binbin\001_Testing_Profiles\20220308_(Form02C)EIS_charging_10bis16V_step_01V+(1C+EIS)50cycle.mps
Saved on :
	File : 20220309_(Form02C)EIS_charging_10bis16V_step_01V+(1C+EIS)50cycle_10_GCPL6_C08.mpr
	Directory : C:\DATA\x_Data_VMP3\Extern\InES\Binbin\20220309_SSB_Cell_03_Form01\
	Host : 134.169.45.143
Device : VMP3 (SN 0787)
Address : 134.169.45.150
EC-Lab for windows v11.42 (software)
Internet server v11.40 (firmware)
Command interpretor v11.40 (firmware)
Electrode material :
Initial state :
Electrolyte :
Comments :
Electrode surface area : 0,000 cm²
Characteristic mass : 0,001 g
Equivalent Weight : 0,000 g/eq.
Density : 0,000 g/cm3
Volume (V) : 0,001 cm³
Record Ece
Record Power
Cycle Definition : Charge/Discharge alternance
Ns                  0                   1
Set I/C             I                   I
Is                  0,000               20,000
unit Is             mA                  µA
vs.                 <None>              <None>
N                   1,00                1,00
I sign              > 0                 > 0
t1 (h:m:s)          0:00:0,0000         20:00:0,0000
I Range             100 µA              100 µA
Bandwidth           5                   5
dE1 (mV)            0,00                0,00
dt1 (s)             0,0000              5,0000
EM (V)              0,000               1,400
tM (h:m:s)          0:00:0,0000         10:00:0,0000
Im                  0,000               10,000
unit Im             mA                  µA
dI/dt               0,000               0,000
dunit dI/dt         mA/s                mA/s
E range min (V)     0,000               0,000
E range max (V)     5,000               5,000
dq                  0,000               1,000
unit dq             mA.h                mA.h
dtq (s)             0,0000              120,0000
dQM                 0,000               0,000
unit dQM            mA.h                mA.h
dxM                 0,000               0,000
delta SoC (%)       pass                pass
tR (h:m:s)          0:00:10,0000        0:01:0,0000
dER/dt (mV/h)       0,0                 0,1
dER (mV)            0,00                0,00
dtR (s)             1,0000              120,0000
EL (V)              pass                pass
goto Ns'            0                   0
nc cycles           0                   0

Number of loops : 1
Loop 0 from point number 0 to 321

mode	ox/red	error	control changes	Ns changes	counter inc.	Ns	time/s	dq/mA.h	(Q-Qo)/mA.h	control/V/mA	Ewe/V	I Range	Q charge/discharge/mA.h	half cycle	Ece/V	P/W	Energy charge/W.h	Energy discharge/W.h	Capacitance charge/µF	Capacitance discharge/µF	<I>/mA	Q discharge/mA.h	Q charge/mA.h	Capacity/mA.h	Efficiency/%	control/V	control/mA	cycle number	 Ecell/V
3	1	0	0	0	0	0	2,243238748457487E+004	0,000000000000000E+000	0,000000000000000E+000	0,0000000E+000	1,0514146E+001	14	0,000000000000000E+000	0	1,3590157E+001	0,0000000E+000	0,000000000000000E+000	0,000000000000000E+000	0,000000000000000E+000	0,000000000000000E+000	0,000000000000000E+000	0,000000000000000E+000	0,000000000000000E+000	0,000000000000000E+000	0,0000000E+000	0,0000000E+000	0,0000000E+000	0,000000000000000E+000	-3,0760107E+000
3	1	0	0	0	0	0	2,243538748453854E+004	0,000000000000000E+000	0,000000000000000E+000	0,0000000E+000	1,4729902E+001	14	0,000000000000000E+000	0	1,3575985E+001	0,0000000E+000	0,000000000000000E+000	0,000000000000000E+000	0,000000000000000E+000	0,000000000000000E+000	0,000000000000000E+000	0,000000000000000E+000	0,000000000000000E+000	0,000000000000000E+000	0,0000000E+000	0,0000000E+000	0,0000000E+000	0,000000000000000E+000	1,1539173E+000
3	1	0	0	0	0	0	2,243838748450222E+004	0,000000000000000E+000	0,000000000000000E+000	0,0000000E+000	1,4730464E+001	14	0,000000000000000E+000	0	1,3575144E+001	0,0000000E+000	0,000000000000000E+000	0,000000000000000E+000	0,000000000000000E+000	0,000000000000000E+000	0,000000000000000E+000	0,000000000000000E+000	0,000000000000000E+000	0,000000000000000E+000	0,0000000E+000	0,0000000E+000	0,0000000E+000	0,000000000000000E+000	1,1553202E+000
3	1	0	0	0	0	0	2,244138748446590E+004	0,000000000000000E+000	0,000000000000000E+000	0,0000000E+000	1,4731106E+001	14	0,000000000000000E+000	0	1,3575104E+001	0,0000000E+000	0,000000000000000E+000	0,000000000000000E+000	0,000000000000000E+000	0,000000000000000E+000	0,000000000000000E+000	0,000000000000000E+000	0,000000000000000E+000	0,000000000000000E+000	0,0000000E+000	0,0000000E+000	0,0000000E+000	0,000000000000000E+000	1,1560020E+000
1	1	0	1	0	0	1	2,244738768439327E+004	2,785654993293186E-005	2,785877034181936E-005	2,0000001E-002	1,3575372E+001	13	2,785877034181936E-005	0	1,2299383E+001	2,7227739E-004	3,781863664989508E-007	0,000000000000000E+000	3,276189892477242E+001	0,000000000000000E+000	2,005671619454148E-002	0,000000000000000E+000	2,785877034181936E-005	2,785877034181936E-005	0,0000000E+000	0,0000000E+000	2,0000001E-002	0,000000000000000E+000	1,2759886E+000
1	1	0	1	0	0	1	2,246238768421166E+004	2,785691023462762E-005	1,114286473230976E-004	2,0000001E-002	1,3576494E+001	13	1,114286473230976E-004	0	1,2279016E+001	2,7230341E-004	1,512792428252726E-006	0,000000000000000E+000	1,309919977900666E+002	0,000000000000000E+000	2,005697561176557E-002	0,000000000000000E+000	1,114286473230976E-004	1,114286473230976E-004	0,0000000E+000	0,0000000E+000	2,0000001E-002	0,000000000000000E+000	1,2974777E+000
1	1	0	1	0	0	1	2,247738768403005E+004	2,785566119249496E-005	1,949976348486833E-004	2,0000001E-002	1,3576254E+001	13	1,949976348486832E-004	0	1,2270317E+001	2,7228639E-004	2,647312719942706E-006	0,000000000000000E+000	2,292510506873826E+002	0,000000000000000E+000	2,005607630141917E-002	0,000000000000000E+000	1,949976348486832E-004	1,949976348486832E-004	0,0000000E+000	0,0000000E+000	2,0000001E-002	0,000000000000000E+000	1,3059368E+000
1	1	0	1	0	0	1	2,249238768384844E+004	2,785552128404379E-005	2,785649119334089E-004	2,0000001E-002	1,3577578E+001	13	2,785649119334089E-004	0	1,2265867E+001	2,7231156E-004	3,781933798627263E-006	0,000000000000000E+000	3,273563010819394E+002	0,000000000000000E+000	2,005597556733310E-002	0,000000000000000E+000	2,785649119334089E-004	2,785649119334089E-004	0,0000000E+000	0,0000000E+000	2,0000001E-002	0,000000000000000E+000	1,3117104E+000
1	1	0	1	0	0	1	2,250738768366684E+004	2,785607943797691E-005	3,621327551240101E-004	2,0000001E-002	1,3576856E+001	13	3,621327551240102E-004	0	1,2260776E+001	2,7230254E-004	4,916479891788585E-006	0,000000000000000E+000	4,256615872951230E+002	0,000000000000000E+000	2,005637743816982E-002	0,000000000000000E+000	3,621327551240102E-004	3,621327551240102E-004	0,0000000E+000	0,0000000E+000	2,0000001E-002	0,000000000000000E+000	1,3160801E+000
1	1	0	1	0	0	1	2,252238768348523E+004	2,785635663713846E-005	4,457015267977905E-004	2,0000001E-002	1,3577176E+001	13	4,457015267977906E-004	0	1,2257769E+001	2,7231168E-004	6,051143578269408E-006	0,000000000000000E+000	5,238359954756718E+002	0,000000000000000E+000	2,005657702156855E-002	0,000000000000000E+000	4,457015267977906E-004	4,457015267977906E-004	0,0000000E+000	0,0000000E+000	2,0000001E-002	0,000000000000000E+000	1,3194075E+000
1	1	0	1	0	0	1	2,253738768330362E+004	2,785620338738792E-005	5,292699874212138E-004	2,0000001E-002	1,3575893E+001	13	5,292699874212138E-004	0	1,2253759E+001	2,7228447E-004	7,185672391386337E-006	0,000000000000000E+000	6,223151722996354E+002	0,000000000000000E+000	2,005646668174683E-002	0,000000000000000E+000	5,292699874212138E-004	5,292699874212138E-004	0,0000000E+000	0,0000000E+000	2,0000001E-002	0,000000000000000E+000	1,3221340E+000
1	1	0	1	0	0	1	2,255238768312201E+004	2,785601588959495E-005	6,128387744004528E-004	2,0000001E-002	1,3577578E+001	13	6,128387744004527E-004	0	1,2253078E+001	2,7231639E-004	8,320341864680837E-006	0,000000000000000E+000	7,201791243373784E+002	0,000000000000000E+000	2,005633168333425E-002	0,000000000000000E+000	6,128387744004527E-004	6,128387744004527E-004	0,0000000E+000	0,0000000E+000	2,0000001E-002	0,000000000000000E+000	1,3244991E+000
1	1	0	1	0	0	1	2,256738768294040E+004	2,785582700164782E-005	6,964066424266332E-004	2,0000001E-002	1,3577176E+001	13	6,964066424266332E-004	0	1,2250232E+001	2,7230650E-004	9,454901683853725E-006	0,000000000000000E+000	8,184914003153780E+002	0,000000000000000E+000	2,005619568401067E-002	0,000000000000000E+000	6,964066424266332E-004	6,964066424266332E-004	0,0000000E+000	0,0000000E+000	2,0000001E-002	0,000000000000000E+000	1,3269444E+000
1	1	0	1	0	0	1	2,258238768275880E+004	2,785588844969041E-005	7,799739882739054E-004	2,0000001E-002	1,3577578E+001	13	7,799739882739053E-004	0	1,2248949E+001	2,7231517E-004	1,058957061055070E-005	0,000000000000000E+000	9,165885178048206E+002	0,000000000000000E+000	2,005623992660187E-002	0,000000000000000E+000	7,799739882739053E-004	7,799739882739053E-004	0,0000000E+000	0,0000000E+000	2,0000001E-002	0,000000000000000E+000	1,3286285E+000
1	1	0	1	0	0	1	2,259738768257719E+004	2,785623834240768E-005	8,635423800521012E-004	2,0000001E-002	1,3576014E+001	13	8,635423800521012E-004	0	1,2245542E+001	2,7228720E-004	1,172407503157505E-005	0,000000000000000E+000	1,015312501597004E+003	0,000000000000000E+000	2,005649184936135E-002	0,000000000000000E+000	8,635423800521012E-004	8,635423800521012E-004	0,0000000E+000	0,0000000E+000	2,0000001E-002	0,000000000000000E+000	1,3304720E+000
1	1	0	1	0	0	1	2,261238768239558E+004	2,785615825104631E-005	9,471105832005334E-004	2,0000001E-002	1,3578419E+001	13	9,471105832005334E-004	0	1,2246464E+001	2,7233467E-004	1,285878123441582E-005	0,000000000000000E+000	1,112694016632509E+003	0,000000000000000E+000	2,005643418358047E-002	0,000000000000000E+000	9,471105832005334E-004	9,471105832005334E-004	0,0000000E+000	0,0000000E+000	2,0000001E-002	0,000000000000000E+000	1,3319550E+000
1	1	0	1	0	0	1	2,262738768221397E+004	2,785592547586809E-005	1,030678399999109E-003	2,0000001E-002	1,3576374E+001	13	1,030678399999109E-003	0	1,2242735E+001	2,7229136E-004	1,399337388396322E-005	0,000000000000000E+000	1,211680513091763E+003	0,000000000000000E+000	2,005626658545012E-002	0,000000000000000E+000	1,030678399999109E-003	1,030678399999109E-003	0,0000000E+000	0,0000000E+000	2,0000001E-002	0,000000000000000E+000	1,3336391E+000
1	1	0	1	0	0	1	2,264238768203236E+004	2,785601273789588E-005	1,114246143557752E-003	2,0000001E-002	1,3576735E+001	13	1,114246143557752E-003	0	1,2241492E+001	2,7229948E-004	1,512793315574781E-005	0,000000000000000E+000	1,309769372090552E+003	0,000000000000000E+000	2,005632941411090E-002	0,000000000000000E+000	1,114246143557752E-003	1,114246143557752E-003	0,0000000E+000	0,0000000E+000	2,0000001E-002	0,000000000000000E+000	1,3352432E+000
1	1	0	1	0	0	1	2,265738768185076E+004	2,785624567957388E-005	1,197814607101803E-003	2,0000001E-002	1,3576816E+001	13	1,197814607101803E-003	0	1,2240129E+001	2,7230335E-004	1,626251559153297E-005	0,000000000000000E+000	1,407965249891784E+003	0,000000000000000E+000	2,005649713212108E-002	0,000000000000000E+000	1,197814607101803E-003	1,197814607101803E-003	0,0000000E+000	0,0000000E+000	2,0000001E-002	0,000000000000000E+000	1,3366861E+000
1	1	0	1	0	0	1	2,267238768166915E+004	2,785617141415262E-005	1,281383267442592E-003	2,0000001E-002	1,3577136E+001	13	1,281383267442592E-003	0	1,2239127E+001	2,7230906E-004	1,739713643012070E-005	0,000000000000000E+000	1,506038047383967E+003	0,000000000000000E+000	2,005644366101713E-002	0,000000000000000E+000	1,281383267442592E-003	1,281383267442592E-003	0,0000000E+000	0,0000000E+000	2,0000001E-002	0,000000000000000E+000	1,3380089E+000
1	1	0	1	0	0	1	2,268738768148754E+004	2,785626771787388E-005	1,364951524886924E-003	2,0000001E-002	1,3576936E+001	13	1,364951524886924E-003	0	1,2237483E+001	2,7230597E-004	1,853172613613376E-005	0,000000000000000E+000	1,604362565754607E+003	0,000000000000000E+000	2,005651299969728E-002	0,000000000000000E+000	1,364951524886924E-003	1,364951524886924E-003	0,0000000E+000	0,0000000E+000	2,0000001E-002	0,000000000000000E+000	1,3394527E+000
1	1	0	1	0	0	1	2,270238768130593E+004	2,785682687059873E-005	1,448521206156144E-003	2,0000001E-002	1,3575693E+001	13	1,448521206156144E-003	0	1,2234878E+001	2,7228653E-004	1,966627598358303E-005	0,000000000000000E+000	1,703281336637002E+003	0,000000000000000E+000	2,005691558966404E-002	0,000000000000000E+000	1,448521206156144E-003	1,448521206156144E-003	0,0000000E+000	0,0000000E+000	2,0000001E-002	0,000000000000000E+000	1,3408155E+000
1	1	0	1	0	0	1	2,271738768112432E+004	2,785714612683902E-005	1,532092694300330E-003	2,0000001E-002	1,3576534E+001	13	1,532092694300331E-003	0	1,2234276E+001	2,7230653E-004	2,080083468730469E-005	0,000000000000000E+000	1,801056215883978E+003	0,000000000000000E+000	2,005714545415984E-002	0,000000000000000E+000	1,532092694300331E-003	1,532092694300331E-003	0,0000000E+000	0,0000000E+000	2,0000001E-002	0,000000000000000E+000	1,3422585E+000
1	1	0	1	0	0	1	2,273238768094272E+004	2,785777839863052E-005	1,615664596984163E-003	2,0000001E-002	1,3577738E+001	13	1,615664596984163E-003	0	1,2234196E+001	2,7233682E-004	2,193553084350472E-005	0,000000000000000E+000	1,898553276874196E+003	0,000000000000000E+000	2,005760068985523E-002	0,000000000000000E+000	1,615664596984163E-003	1,615664596984163E-003	0,0000000E+000	0,0000000E+000	2,0000001E-002	0,000000000000000E+000	1,3435421E+000
1	1	0	1	0	0	1	2,274738768076111E+004	2,785753721774866E-005	1,699236592637685E-003	2,0000001E-002	1,3576776E+001	13	1,699236592637686E-003	0	1,2232271E+001	2,7231517E-004	2,307017685541963E-005	0,000000000000000E+000	1,997385362677323E+003	0,000000000000000E+000	2,005742703961819E-002	0,000000000000000E+000	1,699236592637686E-003	1,699236592637686E-003	0,0000000E+000	0,0000000E+000	2,0000001E-002	0,000000000000000E+000	1,3445044E+000
1	1	0	1	0	0	1	2,276238768057950E+004	2,785706436023530E-005	1,782808885654848E-003	2,0000001E-002	1,3577096E+001	13	1,782808885654849E-003	0	1,2231509E+001	2,7231697E-004	2,420490062771494E-005	0,000000000000000E+000	2,095402049329057E+003	0,000000000000000E+000	2,005708658220444E-002	0,000000000000000E+000	1,782808885654849E-003	1,782808885654849E-003	0,0000000E+000	0,0000000E+000	2,0000001E-002	0,000000000000000E+000	1,3455868E+000
1	1	0	1	0	0	1	2,277738768039789E+004	2,785678868130263E-005	1,866379183671334E-003	2,0000001E-002	1,3578178E+001	13	1,866379183671334E-003	0	1,2231349E+001	2,7233601E-004	2,533952359053157E-005	0,000000000000000E+000	2,192850415728011E+003	0,000000000000000E+000	2,005688809337052E-002	0,000000000000000E+000	1,866379183671334E-003	1,866379183671334E-003	0,0000000E+000	0,0000000E+000	2,0000001E-002	0,000000000000000E+000	1,3468294E+000
1	1	0	1	0	0	1	2,279238768021628E+004	2,785689584548689E-005	1,949949457354844E-003	2,0000001E-002	1,3577056E+001	13	1,949949457354844E-003	0	1,2228824E+001	2,7231453E-004	2,647412279152708E-005	0,000000000000000E+000	2,291878593634116E+003	0,000000000000000E+000	2,005696525158412E-002	0,000000000000000E+000	1,949949457354844E-003	1,949949457354844E-003	0,0000000E+000	0,0000000E+000	2,0000001E-002	0,000000000000000E+000	1,3482323E+000
1	1	0	1	0	0	1	2,280738768003468E+004	2,785676579643041E-005	2,033519708048035E-003	2,0000001E-002	1,3577618E+001	13	2,033519708048035E-003	0	1,2228222E+001	2,7232454E-004	2,760886354424084E-005	0,000000000000000E+000	2,389664877282056E+003	0,000000000000000E+000	2,005687161626232E-002	0,000000000000000E+000	2,033519708048035E-003	2,033519708048035E-003	0,0000000E+000	0,0000000E+000	2,0000001E-002	0,000000000000000E+000	1,3493958E+000
1	1	0	1	0	0	1	2,282238767985307E+004	2,785663254134771E-005	2,117089496620206E-003	2,0000001E-002	1,3577778E+001	13	2,117089496620207E-003	0	1,2227701E+001	2,7232643E-004	2,874349189055530E-005	0,000000000000000E+000	2,487740746747237E+003	0,000000000000000E+000	2,005677567260162E-002	0,000000000000000E+000	2,117089496620207E-003	2,117089496620207E-003	0,0000000E+000	0,0000000E+000	2,0000001E-002	0,000000000000000E+000	1,3500767E+000
1	1	0	1	0	0	1	2,283738767967146E+004	2,785615115840402E-005	2,200658800636832E-003	2,0000001E-002	1,3577296E+001	13	2,200658800636832E-003	0	1,2226137E+001	2,7231206E-004	2,987817061561084E-005	0,000000000000000E+000	2,586347593991817E+003	0,000000000000000E+000	2,005642907687796E-002	0,000000000000000E+000	2,200658800636832E-003	2,200658800636832E-003	0,0000000E+000	0,0000000E+000	2,0000001E-002	0,000000000000000E+000	1,3511591E+000
1	1	0	1	0	0	1	2,285238767948985E+004	2,785654891427192E-005	2,284227942963234E-003	2,0000001E-002	1,3576856E+001	13	2,284227942963235E-003	0	1,2225055E+001	2,7230714E-004	3,101279018774160E-005	0,000000000000000E+000	2,684949312615046E+003	0,000000000000000E+000	2,005671546110632E-002	0,000000000000000E+000	2,284227942963235E-003	2,284227942963235E-003	0,0000000E+000	0,0000000E+000	2,0000001E-002	0,000000000000000E+000	1,3518009E+000
1	1	0	1	0	0	1	2,286738767930825E+004	2,785669334294895E-005	2,367797784681018E-003	2,0000001E-002	1,3577618E+001	13	2,367797784681018E-003	0	1,2224654E+001	2,7232381E-004	3,214747735567954E-005	0,000000000000000E+000	2,782487516676102E+003	0,000000000000000E+000	2,005681944975504E-002	0,000000000000000E+000	2,367797784681018E-003	2,367797784681018E-003	0,0000000E+000	0,0000000E+000	2,0000001E-002	0,000000000000000E+000	1,3529634E+000
1	1	0	1	0	0	1	2,288238767912664E+004	2,785653003729466E-005	2,451367960048529E-003	2,0000001E-002	1,3576174E+001	13	2,451367960048529E-003	0	1,2221848E+001	2,7229328E-004	3,328208861143852E-005	0,000000000000000E+000	2,882052304688704E+003	0,000000000000000E+000	2,005670186968252E-002	0,000000000000000E+000	2,451367960048529E-003	2,451367960048529E-003	0,0000000E+000	0,0000000E+000	2,0000001E-002	0,000000000000000E+000	1,3543262E+000
1	1	0	1	0	0	1	2,289738767894503E+004	2,785627282783389E-005	2,534937156025320E-003	2,0000001E-002	1,3577818E+001	13	2,534937156025320E-003	0	1,2222730E+001	2,7232373E-004	3,441669552244808E-005	0,000000000000000E+000	2,978704497702894E+003	0,000000000000000E+000	2,005651667886853E-002	0,000000000000000E+000	2,534937156025320E-003	2,534937156025320E-003	0,0000000E+000	0,0000000E+000	2,0000001E-002	0,000000000000000E+000	1,3550882E+000
1	1	0	1	0	0	1	2,291238767876342E+004	2,785639046370569E-005	2,618506655932921E-003	2,0000001E-002	1,3575853E+001	13	2,618506655932921E-003	0	1,2220003E+001	2,7228548E-004	3,555126745520534E-005	0,000000000000000E+000	3,078878035114101E+003	0,000000000000000E+000	2,005660137669725E-002	0,000000000000000E+000	2,618506655932921E-003	2,618506655932921E-003	0,0000000E+000	0,0000000E+000	2,0000001E-002	0,000000000000000E+000	1,3558502E+000
1	1	0	1	0	0	1	2,292738767858181E+004	2,785634486511764E-005	2,702075828560318E-003	2,0000001E-002	1,3577898E+001	13	2,702075828560318E-003	0	1,2221045E+001	2,7232603E-004	3,668590866474247E-005	0,000000000000000E+000	3,175019528070602E+003	0,000000000000000E+000	2,005656854571345E-002	0,000000000000000E+000	2,702075828560318E-003	2,702075828560318E-003	0,0000000E+000	0,0000000E+000	2,0000001E-002	0,000000000000000E+000	1,3568525E+000
1	1	0	1	0	0	1	2,294238767840021E+004	2,785644746478647E-005	2,785645052379929E-003	2,0000001E-002	1,3576414E+001	13	2,785645052379928E-003	0	1,2218440E+001	2,7229727E-004	3,782050923291405E-005	0,000000000000000E+000	3,274801992014256E+003	0,000000000000000E+000	2,005664241747591E-002	0,000000000000000E+000	2,785645052379928E-003	2,785645052379928E-003	0,0000000E+000	0,0000000E+000	2,0000001E-002	0,000000000000000E+000	1,3579741E+000
1	1	0	1	0	0	1	2,295738767821860E+004	2,785663267204331E-005	2,869214587811691E-003	2,0000001E-002	1,3575933E+001	13	2,869214587811691E-003	0	1,2217237E+001	2,7228944E-004	3,895505261107966E-005	0,000000000000000E+000	3,373575782425458E+003	0,000000000000000E+000	2,005677576670245E-002	0,000000000000000E+000	2,869214587811691E-003	2,869214587811691E-003	0,0000000E+000	0,0000000E+000	2,0000001E-002	0,000000000000000E+000	1,3586960E+000
1	1	0	1	0	0	1	2,297238767803699E+004	2,785642395758380E-005	2,952784328630712E-003	2,0000001E-002	1,3577698E+001	13	2,952784328630711E-003	0	1,2218240E+001	2,7232280E-004	4,008968479835826E-005	0,000000000000000E+000	3,469836294745213E+003	0,000000000000000E+000	2,005662549228978E-002	0,000000000000000E+000	2,952784328630711E-003	2,952784328630711E-003	0,0000000E+000	0,0000000E+000	2,0000001E-002	0,000000000000000E+000	1,3594580E+000
1	1	0	1	0	0	1	2,298738767785538E+004	2,785673290263447E-005	3,036353380638692E-003	2,0000001E-002	1,3576534E+001	13	3,036353380638692E-003	0	1,2216035E+001	2,7230248E-004	4,122426066541681E-005	0,000000000000000E+000	3,569394430352690E+003	0,000000000000000E+000	2,005684793272896E-002	0,000000000000000E+000	3,036353380638692E-003	3,036353380638692E-003	0,0000000E+000	0,0000000E+000	2,0000001E-002	0,000000000000000E+000	1,3604994E+000
1	1	0	1	0	0	1	2,300238767767377E+004	2,785672076822569E-005	3,119923662039555E-003	2,0000001E-002	1,3576976E+001	13	3,119923662039554E-003	0	1,2215633E+001	2,7231124E-004	4,235895377674883E-005	0,000000000000000E+000	3,667106985545703E+003	0,000000000000000E+000	2,005683919595453E-002	0,000000000000000E+000	3,119923662039554E-003	3,119923662039554E-003	0,0000000E+000	0,0000000E+000	2,0000001E-002	0,000000000000000E+000	1,3613424E+000
1	1	0	1	0	0	1	2,301738767749217E+004	2,785746929556545E-005	3,203494412165032E-003	2,0000001E-002	1,3578138E+001	13	3,203494412165032E-003	0	1,2215714E+001	2,7234186E-004	4,349359741065786E-005	0,000000000000000E+000	3,763906041756127E+003	0,000000000000000E+000	2,005737813564568E-002	0,000000000000000E+000	3,203494412165032E-003	3,203494412165032E-003	0,0000000E+000	0,0000000E+000	2,0000001E-002	0,000000000000000E+000	1,3624249E+000
1	1	0	1	0	0	1	2,303238767731056E+004	2,785689465008262E-005	3,287064850134465E-003	2,0000001E-002	1,3577096E+001	13	3,287064850134464E-003	0	1,2213910E+001	2,7231534E-004	4,462821446337910E-005	0,000000000000000E+000	3,863410418621128E+003	0,000000000000000E+000	2,005696439089304E-002	0,000000000000000E+000	3,287064850134464E-003	3,287064850134464E-003	0,0000000E+000	0,0000000E+000	2,0000001E-002	0,000000000000000E+000	1,3631859E+000
1	1	0	1	0	0	1	2,304738767712895E+004	2,785604292764846E-005	3,370634575447585E-003	2,0000001E-002	1,3577296E+001	13	3,370634575447585E-003	0	1,2213469E+001	2,7231104E-004	4,576290671953680E-005	0,000000000000000E+000	3,961374031227268E+003	0,000000000000000E+000	2,005635115073301E-002	0,000000000000000E+000	3,370634575447585E-003	3,370634575447585E-003	0,0000000E+000	0,0000000E+000	2,0000001E-002	0,000000000000000E+000	1,3638277E+000
1	1	0	1	0	0	1	2,306238767694734E+004	2,785576446157777E-005	3,454202103325787E-003	2,0000001E-002	1,3578540E+001	13	3,454202103325786E-003	0	1,2213108E+001	2,7233324E-004	4,689755017084699E-005	0,000000000000000E+000	4,057940194167582E+003	0,000000000000000E+000	2,005615065515969E-002	0,000000000000000E+000	3,454202103325786E-003	3,454202103325786E-003	0,0000000E+000	0,0000000E+000	2,0000001E-002	0,000000000000000E+000	1,3654318E+000
1	1	0	1	0	0	1	2,307738767676573E+004	2,785553889380147E-005	3,537769714126881E-003	2,0000001E-002	1,3577698E+001	13	3,537769714126880E-003	0	1,2212146E+001	2,7231415E-004	4,803213890733415E-005	0,000000000000000E+000	4,157256470614069E+003	0,000000000000000E+000	2,005598824635879E-002	0,000000000000000E+000	3,537769714126880E-003	3,537769714126880E-003	0,0000000E+000	0,0000000E+000	2,0000001E-002	0,000000000000000E+000	1,3655519E+000
1	1	0	1	0	0	1	2,309238767658413E+004	2,785550149675045E-005	3,621336226479564E-003	2,0000001E-002	1,3575933E+001	13	3,621336226479564E-003	0	1,2209701E+001	2,7227838E-004	4,916667808981851E-005	0,000000000000000E+000	4,257908155621454E+003	0,000000000000000E+000	2,005596132048173E-002	0,000000000000000E+000	3,621336226479564E-003	3,621336226479564E-003	0,0000000E+000	0,0000000E+000	2,0000001E-002	0,000000000000000E+000	1,3662329E+000
1	1	0	1	0	0	1	2,310738767640252E+004	2,785551187189089E-005	3,704902476594990E-003	2,0000001E-002	1,3576414E+001	13	3,704902476594990E-003	0	1,2209059E+001	2,7228813E-004	5,030120701772670E-005	0,000000000000000E+000	4,355480250510054E+003	0,000000000000000E+000	2,005596879058293E-002	0,000000000000000E+000	3,704902476594990E-003	3,704902476594990E-003	0,0000000E+000	0,0000000E+000	2,0000001E-002	0,000000000000000E+000	1,3673553E+000
1	1	0	1	0	0	1	2,312238767622091E+004	2,785546962730586E-005	3,788468661145514E-003	2,0000001E-002	1,3576776E+001	13	3,788468661145513E-003	0	1,2208618E+001	2,7229497E-004	5,143572836109978E-005	0,000000000000000E+000	4,453194972094894E+003	0,000000000000000E+000	2,005593837448135E-002	0,000000000000000E+000	3,788468661145513E-003	3,788468661145513E-003	0,0000000E+000	0,0000000E+000	2,0000001E-002	0,000000000000000E+000	1,3681574E+000
1	1	0	1	0	0	1	2,313738767603930E+004	2,785600175356699E-005	3,872036363070210E-003	2,0000001E-002	1,3577256E+001	13	3,872036363070209E-003	0	1,2208337E+001	2,7230982E-004	5,257039537494342E-005	0,000000000000000E+000	4,550711305566339E+003	0,000000000000000E+000	2,005632150539400E-002	0,000000000000000E+000	3,872036363070209E-003	3,872036363070209E-003	0,0000000E+000	0,0000000E+000	2,0000001E-002	0,000000000000000E+000	1,3689194E+000
1	1	0	1	0	0	1	2,315238767585770E+004	2,785630929221709E-005	3,955605090115116E-003	2,0000001E-002	1,3576655E+001	13	3,955605090115115E-003	0	1,2206934E+001	2,7230076E-004	5,370496127791964E-005	0,000000000000000E+000	4,649839666967430E+003	0,000000000000000E+000	2,005654293322475E-002	0,000000000000000E+000	3,955605090115115E-003	3,955605090115115E-003	0,0000000E+000	0,0000000E+000	2,0000001E-002	0,000000000000000E+000	1,3697214E+000
1	1	0	1	0	0	1	2,316738767567609E+004	2,785684386878792E-005	4,039174824943973E-003	2,0000001E-002	1,3577176E+001	13	4,039174824943973E-003	0	1,2206894E+001	2,7231645E-004	5,483960339960080E-005	0,000000000000000E+000	4,747269277999896E+003	0,000000000000000E+000	2,005692782836041E-002	0,000000000000000E+000	4,039174824943973E-003	4,039174824943973E-003	0,0000000E+000	0,0000000E+000	2,0000001E-002	0,000000000000000E+000	1,3702822E+000
1	1	0	1	0	0	1	2,318238767549448E+004	2,785694625839177E-005	4,122745623142872E-003	2,0000001E-002	1,3576534E+001	13	4,122745623142872E-003	0	1,2205291E+001	2,7230458E-004	5,597428341701120E-005	0,000000000000000E+000	4,846506127660172E+003	0,000000000000000E+000	2,005700154887607E-002	0,000000000000000E+000	4,122745623142872E-003	4,122745623142872E-003	0,0000000E+000	0,0000000E+000	2,0000001E-002	0,000000000000000E+000	1,3712435E+000
1	1	0	1	0	0	1	2,319738767531287E+004	2,785702991796037E-005	4,206316514394039E-003	2,0000001E-002	1,3578138E+001	13	4,206316514394039E-003	0	1,2206252E+001	2,7233755E-004	5,710899596657733E-005	0,000000000000000E+000	4,942159437501989E+003	0,000000000000000E+000	2,005706178376619E-002	0,000000000000000E+000	4,206316514394039E-003	4,206316514394039E-003	0,0000000E+000	0,0000000E+000	2,0000001E-002	0,000000000000000E+000	1,3718863E+000
1	1	0	1	0	0	1	2,321238767513126E+004	2,785704529833876E-005	4,289887703982286E-003	2,0000001E-002	1,3578259E+001	13	4,289887703982286E-003	0	1,2205852E+001	2,7234011E-004	5,824375725189293E-005	0,000000000000000E+000	5,040152707002540E+003	0,000000000000000E+000	2,005707285763877E-002	0,000000000000000E+000	4,289887703982286E-003	4,289887703982286E-003	0,0000000E+000	0,0000000E+000	2,0000001E-002	0,000000000000000E+000	1,3724070E+000
1	1	0	1	0	0	1	2,322738767494966E+004	2,785722395974315E-005	4,373459046780236E-003	2,0000001E-002	1,3576534E+001	13	4,373459046780236E-003	0	1,2203567E+001	2,7230728E-004	5,937841562618456E-005	0,000000000000000E+000	5,141233053601058E+003	0,000000000000000E+000	2,005720149385149E-002	0,000000000000000E+000	4,373459046780236E-003	4,373459046780236E-003	0,0000000E+000	0,0000000E+000	2,0000001E-002	0,000000000000000E+000	1,3729677E+000
1	1	0	1	0	0	1	2,324238767476805E+004	2,785716729569766E-005	4,457030046033155E-003	2,0000001E-002	1,3577336E+001	13	4,457030046033155E-003	0	1,2203326E+001	2,7232282E-004	6,051307045213190E-005	0,000000000000000E+000	5,238103335123713E+003	0,000000000000000E+000	2,005716069573824E-002	0,000000000000000E+000	4,457030046033155E-003	4,457030046033155E-003	0,0000000E+000	0,0000000E+000	2,0000001E-002	0,000000000000000E+000	1,3740101E+000
1	1	0	1	0	0	1	2,325738767458644E+004	2,785710323695093E-005	4,540601221083146E-003	2,0000001E-002	1,3578460E+001	13	4,540601221083147E-003	0	1,2203727E+001	2,7234471E-004	6,164782261364990E-005	0,000000000000000E+000	5,334363577105737E+003	0,000000000000000E+000	2,005711457344004E-002	0,000000000000000E+000	4,540601221083147E-003	4,540601221083147E-003	0,0000000E+000	0,0000000E+000	2,0000001E-002	0,000000000000000E+000	1,3747330E+000
1	1	0	1	0	0	1	2,327238767440483E+004	2,785825704834941E-005	4,624174768394583E-003	2,0000001E-002	1,3577578E+001	13	4,624174768394584E-003	0	1,2202364E+001	2,7233831E-004	6,278255005263098E-005	0,000000000000000E+000	5,434111343139830E+003	0,000000000000000E+000	2,005794531765700E-002	0,000000000000000E+000	4,624174768394584E-003	4,624174768394584E-003	0,0000000E+000	0,0000000E+000	2,0000001E-002	0,000000000000000E+000	1,3752136E+000
1	1	0	1	0	0	1	2,328738767422322E+004	2,785805676225573E-005	4,707749290917896E-003	2,0000001E-002	1,3578460E+001	13	4,707749290917896E-003	0	1,2202324E+001	2,7235405E-004	6,391735550448799E-005	0,000000000000000E+000	5,530731531985801E+003	0,000000000000000E+000	2,005780111166780E-002	0,000000000000000E+000	4,707749290917896E-003	4,707749290917896E-003	0,0000000E+000	0,0000000E+000	2,0000001E-002	0,000000000000000E+000	1,3761358E+000
1	1	0	1	0	0	1	2,330238767404162E+004	2,785881096041865E-005	4,791324419433044E-003	2,0000001E-002	1,3576454E+001	13	4,791324419433044E-003	0	1,2199557E+001	2,7232119E-004	6,505206862451113E-005	0,000000000000000E+000	5,632603303003749E+003	0,000000000000000E+000	2,005834413435168E-002	0,000000000000000E+000	4,791324419433044E-003	4,791324419433044E-003	0,0000000E+000	0,0000000E+000	2,0000001E-002	0,000000000000000E+000	1,3768969E+000
1	1	0	1	0	0	1	2,331738767386001E+004	2,785840891260240E-005	4,874898542766563E-003	2,0000001E-002	1,3577698E+001	13	4,874898542766563E-003	0	1,2200039E+001	2,7234221E-004	6,618678374657557E-005	0,000000000000000E+000	5,728525355841337E+003	0,000000000000000E+000	2,005805465992047E-002	0,000000000000000E+000	4,874898542766563E-003	4,874898542766563E-003	0,0000000E+000	0,0000000E+000	2,0000001E-002	0,000000000000000E+000	1,3776588E+000
1	1	0	1	0	0	1	2,333238767367840E+004	2,785716240159753E-005	4,958470329952737E-003	2,0000001E-002	1,3579021E+001	13	4,958470329952737E-003	0	1,2200880E+001	2,7235656E-004	6,732159336822874E-005	0,000000000000000E+000	5,824216397683791E+003	0,000000000000000E+000	2,005715717198611E-002	0,000000000000000E+000	4,958470329952737E-003	4,958470329952737E-003	0,0000000E+000	0,0000000E+000	2,0000001E-002	0,000000000000000E+000	1,3781404E+000
1	1	0	1	0	0	1	2,334738767349679E+004	2,785702277751019E-005	5,042041608129731E-003	2,0000001E-002	1,3577216E+001	13	5,042041608129731E-003	0	1,2198275E+001	2,7231898E-004	6,845628771319749E-005	0,000000000000000E+000	5,925867847569561E+003	0,000000000000000E+000	2,005705664264200E-002	0,000000000000000E+000	5,042041608129731E-003	5,042041608129731E-003	0,0000000E+000	0,0000000E+000	2,0000001E-002	0,000000000000000E+000	1,3789415E+000
1	1	0	1	0	0	1	2,336238767331518E+004	2,785696336533874E-005	5,125612689583148E-003	2,0000001E-002	1,3578419E+001	13	5,125612689583147E-003	0	1,2199037E+001	2,7234253E-004	6,959106426725675E-005	0,000000000000000E+000	6,021724044094302E+003	0,000000000000000E+000	2,005701386587804E-002	0,000000000000000E+000	5,125612689583147E-003	5,125612689583147E-003	0,0000000E+000	0,0000000E+000	2,0000001E-002	0,000000000000000E+000	1,3793821E+000
1	1	0	1	0	0	1	2,337738767313358E+004	2,785714194820159E-005	5,209184251816839E-003	2,0000001E-002	1,3578058E+001	13	5,209184251816839E-003	0	1,2197833E+001	2,7233703E-004	7,072581496473679E-005	0,000000000000000E+000	6,120626476648205E+003	0,000000000000000E+000	2,005714244554085E-002	0,000000000000000E+000	5,209184251816839E-003	5,209184251816839E-003	0,0000000E+000	0,0000000E+000	2,0000001E-002	0,000000000000000E+000	1,3802252E+000
1	1	0	1	0	0	1	2,339238767295197E+004	2,785699581096156E-005	5,292755803491299E-003	2,0000001E-002	1,3577858E+001	13	5,292755803491297E-003	0	1,2196791E+001	2,7233161E-004	7,186054878186950E-005	0,000000000000000E+000	6,219226920125722E+003	0,000000000000000E+000	2,005703722672675E-002	0,000000000000000E+000	5,292755803491297E-003	5,292755803491297E-003	0,0000000E+000	0,0000000E+000	2,0000001E-002	0,000000000000000E+000	1,3810673E+000
1	1	0	1	0	0	1	2,340738767277036E+004	2,785656129620556E-005	5,376326247872992E-003	2,0000001E-002	1,3577778E+001	13	5,376326247872990E-003	0	1,2196430E+001	2,7232576E-004	7,299521953206558E-005	0,000000000000000E+000	6,317591153322745E+003	0,000000000000000E+000	2,005672437609864E-002	0,000000000000000E+000	5,376326247872990E-003	5,376326247872990E-003	0,0000000E+000	0,0000000E+000	2,0000001E-002	0,000000000000000E+000	1,3813477E+000
1	1	0	1	0	0	1	2,342238767258875E+004	2,785679417910675E-005	5,459896712198129E-003	2,0000001E-002	1,3577818E+001	13	5,459896712198128E-003	0	1,2195748E+001	2,7232882E-004	7,412993970093505E-005	0,000000000000000E+000	6,415708908191710E+003	0,000000000000000E+000	2,005689205178953E-002	0,000000000000000E+000	5,459896712198128E-003	5,459896712198128E-003	0,0000000E+000	0,0000000E+000	2,0000001E-002	0,000000000000000E+000	1,3820696E+000
1	1	0	1	0	0	1	2,343738767240715E+004	2,785696072586708E-005	5,543467399854523E-003	2,0000001E-002	1,3576575E+001	13	5,543467399854523E-003	0	1,2193745E+001	2,7230554E-004	7,526453891675580E-005	0,000000000000000E+000	6,516552661216397E+003	0,000000000000000E+000	2,005701196545842E-002	0,000000000000000E+000	5,543467399854523E-003	5,543467399854523E-003	0,0000000E+000	0,0000000E+000	2,0000001E-002	0,000000000000000E+000	1,3828306E+000
1	1	0	1	0	0	1	2,345238767222554E+004	2,785709142260667E-005	5,627038425399922E-003	2,0000001E-002	1,3578018E+001	13	5,627038425399921E-003	0	1,2194426E+001	2,7233575E-004	7,639921532628894E-005	0,000000000000000E+000	6,611678327634932E+003	0,000000000000000E+000	2,005710606711207E-002	0,000000000000000E+000	5,627038425399921E-003	5,627038425399921E-003	0,0000000E+000	0,0000000E+000	2,0000001E-002	0,000000000000000E+000	1,3835926E+000
1	1	0	1	0	0	1	2,346738767204393E+004	2,785691352664596E-005	5,710609369154295E-003	2,0000001E-002	1,3577778E+001	13	5,710609369154294E-003	0	1,2193624E+001	2,7232920E-004	7,753395430512901E-005	0,000000000000000E+000	6,710399177305178E+003	0,000000000000000E+000	2,005697798201881E-002	0,000000000000000E+000	5,710609369154294E-003	5,710609369154294E-003	0,0000000E+000	0,0000000E+000	2,0000001E-002	0,000000000000000E+000	1,3841543E+000
1	1	0	1	0	0	1	2,348238767186232E+004	2,785719139635977E-005	5,794180339085249E-003	2,0000001E-002	1,3577256E+001	13	5,794180339085247E-003	0	1,2192782E+001	2,7232143E-004	7,866860650130782E-005	0,000000000000000E+000	6,809760937952052E+003	0,000000000000000E+000	2,005717804821517E-002	0,000000000000000E+000	5,794180339085247E-003	5,794180339085247E-003	0,0000000E+000	0,0000000E+000	2,0000001E-002	0,000000000000000E+000	1,3844738E+000
1	1	0	1	0	0	1	2,349738767168071E+004	2,785710431480159E-005	5,877751897412456E-003	2,0000001E-002	1,3577216E+001	13	5,877751897412454E-003	0	1,2192261E+001	2,7231980E-004	7,980333591901736E-005	0,000000000000000E+000	6,908070914906114E+003	0,000000000000000E+000	2,005711534949252E-002	0,000000000000000E+000	5,877751897412454E-003	5,877751897412454E-003	0,0000000E+000	0,0000000E+000	2,0000001E-002	0,000000000000000E+000	1,3849554E+000
1	1	0	1	0	0	1	2,351238767149911E+004	2,785692405690335E-005	5,961323177974878E-003	2,0000001E-002	1,3578419E+001	13	5,961323177974876E-003	0	1,2192341E+001	2,7234215E-004	8,093798561094445E-005	0,000000000000000E+000	7,003541876736577E+003	0,000000000000000E+000	2,005698556380422E-002	0,000000000000000E+000	5,961323177974876E-003	5,961323177974876E-003	0,0000000E+000	0,0000000E+000	2,0000001E-002	0,000000000000000E+000	1,3860779E+000
1	1	0	1	0	0	1	2,352738767131750E+004	2,785694479373180E-005	6,044894406480715E-003	2,0000001E-002	1,3577016E+001	13	6,044894406480713E-003	0	1,2190818E+001	2,7231421E-004	8,207270053478767E-005	0,000000000000000E+000	7,104976600768611E+003	0,000000000000000E+000	2,005700049432088E-002	0,000000000000000E+000	6,044894406480713E-003	6,044894406480713E-003	0,0000000E+000	0,0000000E+000	2,0000001E-002	0,000000000000000E+000	1,3861980E+000
1	1	0	1	0	0	1	2,354238767113589E+004	2,785674145010610E-005	6,128464479904932E-003	2,0000001E-002	1,3576214E+001	13	6,128464479904930E-003	0	1,2189094E+001	2,7229617E-004	8,320726125883140E-005	0,000000000000000E+000	7,205088924178612E+003	0,000000000000000E+000	2,005685408690861E-002	0,000000000000000E+000	6,128464479904930E-003	6,128464479904930E-003	0,0000000E+000	0,0000000E+000	2,0000001E-002	0,000000000000000E+000	1,3871202E+000
1	1	0	1	0	0	1	2,355738767095428E+004	2,785797023514493E-005	6,212037390617757E-003	2,0000001E-002	1,3577456E+001	13	6,212037390617754E-003	0	1,2189495E+001	2,7233310E-004	8,434200122816384E-005	0,000000000000000E+000	7,300380979023736E+003	0,000000000000000E+000	2,005773881214727E-002	0,000000000000000E+000	6,212037390617754E-003	6,212037390617754E-003	0,0000000E+000	0,0000000E+000	2,0000001E-002	0,000000000000000E+000	1,3879614E+000
1	1	0	1	0	0	1	2,357238767077267E+004	2,785755746428751E-005	6,295610887313468E-003	2,0000001E-002	1,3577456E+001	13	6,295610887313466E-003	0	1,2189094E+001	2,7232905E-004	8,547666650293759E-005	0,000000000000000E+000	7,398596480197209E+003	0,000000000000000E+000	2,005744161712633E-002	0,000000000000000E+000	6,295610887313466E-003	6,295610887313466E-003	0,0000000E+000	0,0000000E+000	2,0000001E-002	0,000000000000000E+000	1,3883629E+000
1	1	0	1	0	0	1	2,358738767059107E+004	2,785856924485415E-005	6,379185187103537E-003	2,0000001E-002	1,3577296E+001	13	6,379185187103535E-003	0	1,2188453E+001	2,7233572E-004	8,661143314357246E-005	0,000000000000000E+000	7,497205044016367E+003	0,000000000000000E+000	2,005817009914313E-002	0,000000000000000E+000	6,379185187103535E-003	6,379185187103535E-003	0,0000000E+000	0,0000000E+000	2,0000001E-002	0,000000000000000E+000	1,3888435E+000
1	1	0	1	0	0	1	2,360238767040946E+004	2,785858509596437E-005	6,462759504725122E-003	2,0000001E-002	1,3577618E+001	13	6,462759504725120E-003	0	1,2188131E+001	2,7234232E-004	8,774611068056900E-005	0,000000000000000E+000	7,594629812359599E+003	0,000000000000000E+000	2,005818151194263E-002	0,000000000000000E+000	6,462759504725120E-003	6,462759504725120E-003	0,0000000E+000	0,0000000E+000	2,0000001E-002	0,000000000000000E+000	1,3894863E+000
1	1	0	1	0	0	1	2,361738767022785E+004	2,785734460409731E-005	6,546332092764891E-003	2,0000001E-002	1,3576856E+001	13	6,546332092764889E-003	0	1,2186929E+001	2,7231491E-004	8,888081388405010E-005	0,000000000000000E+000	7,694753015680891E+003	0,000000000000000E+000	2,005728835778753E-002	0,000000000000000E+000	6,546332092764889E-003	6,546332092764889E-003	0,0000000E+000	0,0000000E+000	2,0000001E-002	0,000000000000000E+000	1,3899269E+000
1	1	0	1	0	0	1	2,363238767004624E+004	2,785752923745248E-005	6,629904353689713E-003	2,0000001E-002	1,3578339E+001	13	6,629904353689711E-003	0	1,2187651E+001	2,7234646E-004	9,001551822482141E-005	0,000000000000000E+000	7,789214794861921E+003	0,000000000000000E+000	2,005742129380487E-002	0,000000000000000E+000	6,629904353689711E-003	6,629904353689711E-003	0,0000000E+000	0,0000000E+000	2,0000001E-002	0,000000000000000E+000	1,3906879E+000
1	1	0	1	0	0	1	2,364738766986463E+004	2,785726055854725E-005	6,713476329099904E-003	2,0000001E-002	1,3577618E+001	13	6,713476329099902E-003	0	1,2186127E+001	2,7232937E-004	9,115017291439345E-005	0,000000000000000E+000	7,889256506647806E+003	0,000000000000000E+000	2,005722784499075E-002	0,000000000000000E+000	6,713476329099902E-003	6,713476329099902E-003	0,0000000E+000	0,0000000E+000	2,0000001E-002	0,000000000000000E+000	1,3914909E+000
1	1	0	1	0	0	1	2,366238766968303E+004	2,785709525779304E-005	6,797047563572725E-003	2,0000001E-002	1,3577136E+001	13	6,797047563572723E-003	0	1,2185044E+001	2,7231808E-004	9,228486446082562E-005	0,000000000000000E+000	7,988720081423745E+003	0,000000000000000E+000	2,005710882844628E-002	0,000000000000000E+000	6,797047563572723E-003	6,797047563572723E-003	0,0000000E+000	0,0000000E+000	2,0000001E-002	0,000000000000000E+000	1,3920918E+000
1	1	0	1	0	0	1	2,367738766950142E+004	2,785698133375910E-005	6,880618565477327E-003	2,0000001E-002	1,3578178E+001	13	6,880618565477325E-003	0	1,2185886E+001	2,7233787E-004	9,341953385449161E-005	0,000000000000000E+000	8,084191794345377E+003	0,000000000000000E+000	2,005702680314085E-002	0,000000000000000E+000	6,880618565477325E-003	6,880618565477325E-003	0,0000000E+000	0,0000000E+000	2,0000001E-002	0,000000000000000E+000	1,3922920E+000
1	1	0	1	0	0	1	2,369238766931981E+004	2,785674995566822E-005	6,964189110816767E-003	2,0000001E-002	1,3576534E+001	13	6,964189110816765E-003	0	1,2183722E+001	2,7230266E-004	9,455420483327353E-005	0,000000000000000E+000	8,186773641888610E+003	0,000000000000000E+000	2,005686021091340E-002	0,000000000000000E+000	6,964189110816765E-003	6,964189110816765E-003	0,0000000E+000	0,0000000E+000	2,0000001E-002	0,000000000000000E+000	1,3928127E+000
1	1	0	1	0	0	1	2,370738766913820E+004	2,785714473647790E-005	7,047760156654546E-003	2,0000001E-002	1,3578500E+001	13	7,047760156654545E-003	0	1,2184884E+001	2,7234593E-004	9,568890946640823E-005	0,000000000000000E+000	8,279701704491930E+003	0,000000000000000E+000	2,005714445309981E-002	0,000000000000000E+000	7,047760156654545E-003	7,047760156654545E-003	0,0000000E+000	0,0000000E+000	2,0000001E-002	0,000000000000000E+000	1,3936157E+000
1	1	0	1	0	0	1	2,372238766895660E+004	2,785720654504581E-005	7,131331295950855E-003	2,0000001E-002	1,3577336E+001	13	7,131331295950854E-003	0	1,2183441E+001	2,7232320E-004	9,682363765747530E-005	0,000000000000000E+000	8,381063142807092E+003	0,000000000000000E+000	2,005718895526925E-002	0,000000000000000E+000	7,131331295950854E-003	7,131331295950854E-003	0,0000000E+000	0,0000000E+000	2,0000001E-002	0,000000000000000E+000	1,3938951E+000
1	1	0	1	0	0	1	2,373738766877499E+004	2,785709813216494E-005	7,214902717574189E-003	2,0000001E-002	1,3578820E+001	13	7,214902717574188E-003	0	1,2183962E+001	2,7235190E-004	9,795835074002321E-005	0,000000000000000E+000	8,475174385394772E+003	0,000000000000000E+000	2,005711089799408E-002	0,000000000000000E+000	7,214902717574188E-003	7,214902717574188E-003	0,0000000E+000	0,0000000E+000	2,0000001E-002	0,000000000000000E+000	1,3948584E+000
1	1	0	1	0	0	1	2,375238766859338E+004	2,785737923315416E-005	7,298474404103433E-003	2,0000001E-002	1,3577336E+001	13	7,298474404103432E-003	0	1,2182037E+001	2,7232489E-004	9,909302608178351E-005	0,000000000000000E+000	8,577497284649189E+003	0,000000000000000E+000	2,005731329070877E-002	0,000000000000000E+000	7,298474404103432E-003	7,298474404103432E-003	0,0000000E+000	0,0000000E+000	2,0000001E-002	0,000000000000000E+000	1,3952990E+000
1	1	0	1	0	0	1	2,376738766841177E+004	2,785730397494303E-005	7,382046425635409E-003	2,0000001E-002	1,3576014E+001	13	7,382046425635409E-003	0	1,2180154E+001	2,7229762E-004	1,002276825133885E-004	0,000000000000000E+000	8,679462868822837E+003	0,000000000000000E+000	2,005725910479610E-002	0,000000000000000E+000	7,382046425635409E-003	7,382046425635409E-003	0,0000000E+000	0,0000000E+000	2,0000001E-002	0,000000000000000E+000	1,3958597E+000
1	1	0	1	0	0	1	2,378238766823016E+004	2,785726915434417E-005	7,465618249070210E-003	2,0000001E-002	1,3577456E+001	13	7,465618249070209E-003	0	1,2180755E+001	2,7232623E-004	1,013624110674286E-004	0,000000000000000E+000	8,773588121745790E+003	0,000000000000000E+000	2,005723403396462E-002	0,000000000000000E+000	7,465618249070209E-003	7,465618249070209E-003	0,0000000E+000	0,0000000E+000	2,0000001E-002	0,000000000000000E+000	1,3967018E+000
1	1	0	1	0	0	1	2,379738766804856E+004	2,785736446113636E-005	7,549190357293519E-003	2,0000001E-002	1,3577578E+001	13	7,549190357293519E-003	0	1,2180955E+001	2,7232958E-004	1,024970764866279E-004	0,000000000000000E+000	8,871451233304684E+003	0,000000000000000E+000	2,005730265485582E-002	0,000000000000000E+000	7,549190357293519E-003	7,549190357293519E-003	0,0000000E+000	0,0000000E+000	2,0000001E-002	0,000000000000000E+000	1,3966227E+000
1	1	0	1	0	0	1	2,381238766786695E+004	2,785730087074141E-005	7,632762280123412E-003	2,0000001E-002	1,3576294E+001	13	7,632762280123412E-003	0	1,2178790E+001	2,7230321E-004	1,036317181619671E-004	0,000000000000000E+000	8,973421063695223E+003	0,000000000000000E+000	2,005725686977090E-002	0,000000000000000E+000	7,632762280123412E-003	7,632762280123412E-003	0,0000000E+000	0,0000000E+000	2,0000001E-002	0,000000000000000E+000	1,3975039E+000
1	1	0	1	0	0	1	2,382738766768534E+004	2,785727522967176E-005	7,716334056324739E-003	2,0000001E-002	1,3576494E+001	13	7,716334056324739E-003	0	1,2178550E+001	2,7230699E-004	1,047664237319972E-004	0,000000000000000E+000	9,071078559561638E+003	0,000000000000000E+000	2,005723840820054E-002	0,000000000000000E+000	7,716334056324739E-003	7,716334056324739E-003	0,0000000E+000	0,0000000E+000	2,0000001E-002	0,000000000000000E+000	1,3979445E+000
1	1	0	1	0	0	1	2,384238766750373E+004	2,785817469666816E-005	7,799907806143578E-003	2,0000001E-002	1,3576976E+001	13	7,799907806143578E-003	0	1,2178390E+001	2,7232544E-004	1,059011460829957E-004	0,000000000000000E+000	9,167883416680515E+003	0,000000000000000E+000	2,005788602444578E-002	0,000000000000000E+000	7,799907806143578E-003	7,799907806143578E-003	0,0000000E+000	0,0000000E+000	2,0000001E-002	0,000000000000000E+000	1,3985863E+000
1	1	0	1	0	0	1	2,385738766732212E+004	2,785772864075585E-005	7,883481795370786E-003	2,0000001E-002	1,3578138E+001	13	7,883481795370786E-003	0	1,2178911E+001	2,7234439E-004	1,070358638469317E-004	0,000000000000000E+000	9,262599193864902E+003	0,000000000000000E+000	2,005756486418503E-002	0,000000000000000E+000	7,883481795370786E-003	7,883481795370786E-003	0,0000000E+000	0,0000000E+000	2,0000001E-002	0,000000000000000E+000	1,3992271E+000
1	1	0	1	0	0	1	2,387238766714052E+004	2,785820727640142E-005	7,967056262270858E-003	2,0000001E-002	1,3576374E+001	13	7,967056262270858E-003	0	1,2176987E+001	2,7231369E-004	1,081705199506521E-004	0,000000000000000E+000	9,366187182837675E+003	0,000000000000000E+000	2,005790948185401E-002	0,000000000000000E+000	7,967056262270858E-003	7,967056262270858E-003	0,0000000E+000	0,0000000E+000	2,0000001E-002	0,000000000000000E+000	1,3993874E+000
1	1	0	1	0	0	1	2,387877906706311E+004	1,113989700873693E-009	8,002666083652837E-003	2,0000001E-002	1,3578419E+001	13	8,002666083652835E-003	0	1,2178630E+001	2,7227192E-004	1,086540209633041E-004	0,000000000000000E+000	9,401772956963203E+003	0,000000000000000E+000	2,005181512227793E-002	0,000000000000000E+000	8,002666083652835E-003	8,002666083652835E-003	0,0000000E+000	0,0000000E+000	2,0000001E-002	0,000000000000000E+000	1,3997889E+000
2	1	0	0	0	0	1	2,411878026415739E+004	5,557566732896699E-004	9,145732759808397E-003	1,4000391E+000	1,3576454E+001	13	9,145732759808395E-003	0	1,2180154E+001	2,2635616E-004	1,241729246685095E-004	0,000000000000000E+000	1,075157514743742E+004	0,000000000000000E+000	1,667270040054971E-002	0,000000000000000E+000	9,145732759808395E-003	9,145732759808395E-003	0,0000000E+000	1,4000391E+000	0,0000000E+000	0,000000000000000E+000	1,3963003E+000
2	1	0	0	0	0	1	2,447878025979880E+004	4,774751385597305E-004	1,064899188252093E-002	1,4000391E+000	1,3577698E+001	13	1,064899188252093E-002	0	1,2181356E+001	1,9449039E-004	1,445818806129516E-004	0,000000000000000E+000	1,251370043458377E+004	0,000000000000000E+000	1,432425433021843E-002	0,000000000000000E+000	1,064899188252093E-002	1,064899188252093E-002	0,0000000E+000	1,4000391E+000	0,0000000E+000	0,000000000000000E+000	1,3963413E+000
2	1	0	0	0	0	1	2,483878025544022E+004	4,232849417366605E-004	1,196920189129380E-002	1,4000391E+000	1,3578299E+001	13	1,196920189129380E-002	0	1,2182100E+001	1,7242468E-004	1,625076670333348E-004	0,000000000000000E+000	1,406233004030661E+004	0,000000000000000E+000	1,269854840584360E-002	0,000000000000000E+000	1,196920189129380E-002	1,196920189129380E-002	0,0000000E+000	1,4000391E+000	0,0000000E+000	0,000000000000000E+000	1,3961983E+000
2	1	0	0	0	0	1	2,519878025108163E+004	3,821357737978299E-004	1,315452723357154E-002	1,4000391E+000	1,3577256E+001	13	1,315452723357153E-002	0	1,2180840E+001	1,5565066E-004	1,786002760320329E-004	0,000000000000000E+000	1,546019979877674E+004	0,000000000000000E+000	1,146407335273265E-002	0,000000000000000E+000	1,315452723357153E-002	1,315452723357153E-002	0,0000000E+000	1,4000391E+000	0,0000000E+000	0,000000000000000E+000	1,3964157E+000
2	1	0	0	0	0	1	2,555878024672304E+004	3,489295962785578E-004	1,423311997951738E-002	1,4000391E+000	1,3576174E+001	13	1,423311997951738E-002	0	1,2179924E+001	1,4211386E-004	1,932437914327618E-004	0,000000000000000E+000	1,673375719533628E+004	0,000000000000000E+000	1,046788801509348E-002	0,000000000000000E+000	1,423311997951738E-002	1,423311997951738E-002	0,0000000E+000	1,4000391E+000	0,0000000E+000	0,000000000000000E+000	1,3962498E+000
2	1	0	0	0	0	1	2,569005024513369E+004	5,546876022385226E-010	1,460376379798089E-002	1,4000391E+000	1,3577738E+001	13	1,460376379738070E-002	0	1,2181547E+001	1,3556523E-004	1,982757938375098E-004	0,000000000000000E+000	1,716075456748133E+004	0,000000000000000E+000	9,984376366060976E-003	0,000000000000000E+000	1,460376379738070E-002	1,460376379738070E-002	0,0000000E+000	1,4000391E+000	0,0000000E+000	0,000000000000000E+000	1,3961906E+000
3	1	0	1	0	0	1	2,575005044440727E+004	0,000000000000000E+000	1,460376490986787E-002	0,0000000E+000	1,4955641E+001	14	1,460376379738070E-002	0	1,3578230E+001	0,0000000E+000	1,982757938375098E-004	0,000000000000000E+000	1,716075456748133E+004	0,000000000000000E+000	0,000000000000000E+000	0,000000000000000E+000	1,460376379738070E-002	1,460376379738070E-002	0,0000000E+000	0,0000000E+000	0,0000000E+000	0,000000000000000E+000	1,3774109E+000