File: SAMPLE-MPT/20220309_SSB_Cell_03_Form01/20220309_(Form02C)EIS_charging_10bis16V_step_01V+(1C+EIS)50cycle_01_GEIS_C08.mpt
EC-Lab ASCII FILE
Nb header lines : 72

Galvano Electrochemical Impedance Spectroscopy

Run on channel : 8 (SN 14384)
User :
CE vs. WE compliance from -10 V to 10 V
Electrode connection : standard
Potential control : Ewe-Ece
Ewe ctrl range : min = 0,00 V, max = 5,00 V
Safety Limits :
	Do not start on E overload
Acquisition started on : 03/09/2022 13:55:05.456
Technique started on : 03/09/2022 13:55:06.380
Loaded Setting File :  C:\DATA\x_Data_VMP3\Extern\InES\Binbin\001_Testing_Profiles\20220308_(Form02C)EIS_charging_10bis16V_step_01V+(1C+EIS)50cycle.mps
Saved on :
	File : 20220309_(Form02C)EIS_charging_10bis16V_step_01V+(1C+EIS)50cycle_01_GEIS_C08.mpr
	Directory : C:\DATA\x_Data_VMP3\Extern\InES\Binbin\20220309_SSB_Cell_03_Form01\
	Host : 134.169.45.143
Device : VMP3 (SN 0787)
Address : 134.169.45.150
EC-Lab for windows v11.42 (software)
Internet server v11.40 (firmware)
Command interpretor v11.40 (firmware)
Electrode material :
Initial state :
Electrolyte :
Comments :
Electrode surface area : 0,000 cm²
Characteristic mass : 0,001 g
Equivalent Weight : 0,000 g/eq.
Density : 0,000 g/cm3
Volume (V) : 0,001 cm³
Record Ece
Record Power
Cycle Definition : Charge/Discharge alternance
Mode                Single sine
Is                  0,000
unit Is             µA
vs.                 <None>
tIs (h:m:s)         0:00:0,0000
record              0
dE (mV)             0,000
dt (s)              0,000
fi                  1,000
unit fi             MHz
ff                  5,000
unit ff             mHz
Nd                  6
Points              per decade
spacing             Logarithmic
Ia/Va               Ia
Ia                  5,000
unit  Ia            µA
va pourcent         0,10
pw                  0,10
Na                  2
corr                0
E range min (V)     0,000
E range max (V)     5,000
I Range             10 µA
Bandwidth           5
nc cycles           0
goto Ns'            0
nr cycles           0
inc. cycle          0

Number of loops : 1
Loop 0 from point number 0 to 49

freq/Hz	Re(Z)/Ohm	-Im(Z)/Ohm	|Z|/Ohm	Phase(Z)/deg	time/s	<Ewe>/V	<I>/mA	Cs/µF	Cp/µF	cycle number	|Ewe|/V	|I|/A	Ns	I Range	(Q-Qo)/mA.h	<Ece>/V	|Ece|/V	Phase(Zce)/deg	|Zce|/Ohm	Re(Zce)/Ohm	-Im(Zce)/Ohm	Phase(Zwe-ce)/deg	|Zwe-ce|/Ohm	Re(Zwe-ce)/Ohm	-Im(Zwe-ce)/Ohm	P/W	Re(Y)/Ohm-1	Im(Y)/Ohm-1	|Y|/Ohm-1	Phase(Y)/deg	dq/mA.h
1,0000186E+006	-2,9282984E+001	4,9702099E+001	5,7687016E+001	-1,2050532E+002	9,236000438977499E-001	1,3574383E+001	1,6341744E-005	3,2021180E-003	2,3770081E-003	1,000000000000000E+000	2,9493280E-004	5,1126376E-006	0	14	1,236428588441640E-009	1,3588119E+001	1,7443013E-004	3,6664639E+001	3,4117443E+001	2,7367113E+001	-2,0372557E+001	-9,3737381E+001	2,9392050E+001	-1,9158707E+000	2,9329542E+001	2,2182910E-007	-8,7995250E-003	1,4935459E-002	1,7334923E-002	1,2050532E+002	1,236428588441640E-009
6,7700600E+005	-1,0496890E+001	3,6540806E+001	3,8018616E+001	-1,0602750E+002	1,308600062184269E+000	1,3574402E+001	1,4757538E-005	6,4335330E-003	5,9431014E-003	1,000000000000000E+000	2,0827046E-004	5,4781181E-006	0	14	2,432649365851426E-009	1,3590123E+001	1,2090988E-004	9,5640469E+000	2,2071426E+001	2,1764645E+001	-3,6671674E+000	-7,1080360E+001	3,4751091E+001	1,1267755E+001	3,2873638E+001	2,0032475E-007	-7,2621959E-003	2,5280492E-002	2,6302904E-002	1,0602750E+002	1,196220777409786E-009
4,5833025E+005	-4,5472002E+000	3,5067368E+001	3,5360958E+001	-9,7388344E+001	1,693600080470787E+000	1,3574446E+001	1,9718467E-005	9,9023534E-003	9,7386045E-003	1,000000000000000E+000	1,8743388E-004	5,3005883E-006	0	14	1,575000878353371E-009	1,3588319E+001	1,5493286E-004	-3,6548767E+001	2,9229370E+001	2,3481422E+001	1,7406288E+001	-7,0158890E+001	5,5785206E+001	1,8934223E+001	5,2473656E+001	2,6766728E-007	-3,6366056E-003	2,8044980E-002	2,8279778E-002	9,7388344E+001	-8,576484874980553E-010
3,1029172E+005	1,4666192E+001	3,6423309E+001	3,9265182E+001	-6,8067352E+001	1,947600092535140E+000	1,3574373E+001	1,9559533E-005	1,4082201E-002	1,2117530E-002	1,000000000000000E+000	1,7686503E-004	4,5043730E-006	0	14	2,547310971320055E-009	1,3590203E+001	2,0548228E-004	-6,3582226E+001	4,5618397E+001	2,0296221E+001	4,0854641E+001	-6,5656853E+001	8,4818939E+001	3,4962414E+001	7,7277954E+001	2,6550839E-007	9,5126620E-003	2,3624584E-002	2,5467856E-002	6,8067352E+001	9,723100929666846E-010
2,1007459E+005	2,9168966E+001	1,3810190E+001	3,2273052E+001	-2,5335443E+001	2,332600110821659E+000	1,3574495E+001	1,6067590E-005	5,4858878E-002	1,0045376E-002	1,000000000000000E+000	1,5311217E-004	4,7442727E-006	0	14	-2,057994897313620E-009	1,3588599E+001	3,4954335E-004	-7,1065826E+001	7,3676910E+001	2,3906809E+001	6,9690399E+001	-5,7558590E+001	9,8941322E+001	5,3075775E+001	8,3500587E+001	2,1810942E-007	2,8005347E-002	1,3259268E-002	3,0985603E-002	2,5335443E+001	-4,605305868633676E-009
1,4222091E+005	1,9506838E+001	-3,3589227E+000	1,9793915E+001	9,7700701E+000	2,586600122886011E+000	1,3574367E+001	1,5550719E-005	-3,3316293E-001	-9,5938584E-003	1,000000000000000E+000	9,5721582E-005	4,8359097E-006	0	14	4,244063204244321E-009	1,3589842E+001	5,3114246E-004	-6,8688103E+001	1,0983300E+002	3,9918217E+001	1,0232216E+002	-5,9016190E+001	1,1543422E+002	5,9425056E+001	9,8963234E+001	2,1109116E-007	4,9787860E-002	-8,5730748E-003	5,0520577E-002	-9,7700701E+000	6,302058101557941E-009
9,6283031E+004	8,2410192E+000	-7,0371633E+000	1,0836792E+001	4,0494644E+001	2,840600134950364E+000	1,3574356E+001	1,4370277E-005	-2,3489445E-001	-9,9052750E-002	1,000000000000000E+000	5,1833642E-005	4,7831168E-006	0	14	3,500940592276594E-009	1,3588961E+001	7,5500226E-004	-6,8730560E+001	1,5784734E+002	5,7259789E+001	1,4709554E+002	-6,4936012E+001	1,5461792E+002	6,5500809E+001	1,4005836E+002	1,9506726E-007	7,0174523E-002	-5,9923358E-002	9,2278235E-002	-4,0494644E+001	-7,431226119677271E-010
6,5181484E+004	3,9641080E+000	-5,5875816E+000	6,8509283E+000	5,4646217E+001	3,225600153236883E+000	1,3574404E+001	1,5244287E-005	-4,3699050E-001	-2,9068387E-001	1,000000000000000E+000	3,3271983E-005	4,8565657E-006	0	14	9,499932132611219E-009	1,3589121E+001	1,0050813E-003	-6,6394020E+001	2,0695309E+002	8,2873260E+001	1,8963545E+002	-6,4741150E+001	2,0350516E+002	8,6837372E+001	1,8404787E+002	2,0693211E-007	8,4459133E-002	-1,1904880E-001	1,4596562E-001	-5,4646217E+001	5,998991540334626E-009
4,4128563E+004	2,5077727E+000	-4,7607336E+000	5,3808465E+000	6,2221451E+001	3,610600171523402E+000	1,3574492E+001	1,7714841E-005	-7,5757647E-001	-5,9302503E-001	1,000000000000000E+000	2,5811611E-005	4,7969424E-006	0	14	8,322930873924229E-009	1,3589121E+001	1,3171779E-003	-6,5559402E+001	2,7458698E+002	1,1361026E+002	2,4998143E+002	-6,4661293E+001	2,7132376E+002	1,1611803E+002	2,4522070E+002	2,4046997E-007	8,6613774E-002	-1,6442682E-001	1,8584436E-001	-6,2221451E+001	-1,177001258686990E-009
2,9876783E+004	1,7786674E+000	-3,8666773E+000	4,2561545E+000	6,5297623E+001	3,995600189809920E+000	1,3574484E+001	1,5628302E-005	-1,3776801E+000	-1,1370759E+000	1,000000000000000E+000	2,0156958E-005	4,7359554E-006	0	14	2,358113775320211E-009	1,3589241E+001	1,7500645E-003	-6,4437729E+001	3,6952725E+002	1,5944795E+002	3,3335678E+002	-6,3926498E+001	3,6682117E+002	1,6122662E+002	3,2949011E+002	2,1214613E-007	9,8188348E-002	-2,1345344E-001	2,3495388E-001	-6,5297623E+001	-5,964817098604018E-009
2,0227139E+004	5,2315092E-001	-3,2214112E+000	3,2636142E+000	8,0775803E+001	4,380600208096439E+000	1,3574473E+001	1,5899983E-005	-2,4425278E+000	-2,3797657E+000	1,000000000000000E+000	1,5375521E-005	4,7111944E-006	0	14	-1,060981126101979E-009	1,3590163E+001	2,2801389E-003	-6,3481724E+001	4,8398318E+002	2,1609038E+002	4,3306427E+002	-6,3254795E+001	4,8133804E+002	2,1661353E+002	4,2984286E+002	2,1583389E-007	4,9116731E-002	-3,0244648E-001	3,0640876E-001	-8,0775803E+001	-3,419094901422189E-009
1,3695073E+004	1,3377407E+000	-3,9127979E-002	1,3383127E+000	1,6753839E+000	4,765600226382958E+000	1,3574445E+001	1,5120752E-005	-2,9700815E+002	-2,5387970E-001	1,000000000000000E+000	6,3131938E-006	4,7172784E-006	0	14	6,520074027775991E-010	1,3589642E+001	3,0402099E-003	-6,2662704E+001	6,4448389E+002	2,9596500E+002	5,7250696E+002	-6,2555557E+001	6,4506458E+002	2,9730273E+002	5,7246783E+002	2,0525582E-007	7,4689007E-001	-2,1846013E-002	7,4720949E-001	-1,6753839E+000	1,712988528879578E-009
9,2692256E+003	-7,6457095E-001	1,9799854E+000	2,1224775E+000	-1,1111406E+002	5,150600244669477E+000	1,3574491E+001	1,4072445E-005	8,6719093E+000	7,5466194E+000	1,000000000000000E+000	1,0087198E-005	4,7525582E-006	0	14	1,584226618282022E-009	1,3588880E+001	4,0071723E-003	-6,1583752E+001	8,4316113E+002	4,0123816E+002	7,4157172E+002	-6,1693295E+001	8,4454022E+002	4,0047360E+002	7,4355170E+002	1,9102627E-007	-1,6971946E-001	4,3951711E-001	4,7114751E-001	1,1111406E+002	9,322192155044224E-010
6,2722681E+003	3,2059495E+000	-2,7845163E+000	4,2463684E+000	4,0975834E+001	5,535600262955995E+000	1,3574199E+001	1,4978937E-005	-9,1126719E+000	-3,9184105E+000	1,000000000000000E+000	2,0419475E-005	4,8086913E-006	0	14	-3,247170912396137E-010	1,3589842E+001	5,3340849E-003	-5,9976730E+001	1,1092592E+003	5,5501965E+002	9,6042126E+002	-5,9761234E+001	1,1084601E+003	5,5822559E+002	9,5763672E+002	2,0332706E-007	1,7779574E-001	-1,5442386E-001	2,3549534E-001	-4,0975834E+001	-1,908943709521635E-009
4,2448467E+003	4,5305638E+000	-4,3129089E-001	4,5510459E+000	5,4379334E+000	5,961600283189910E+000	1,3574182E+001	1,2489712E-005	-8,6933632E+001	-7,8073919E-001	1,000000000000000E+000	2,2148242E-005	4,8666270E-006	0	14	6,533465883345949E-009	1,3590444E+001	7,0361844E-003	-5,8084312E+001	1,4458031E+003	7,6435388E+002	1,2272367E+003	-5,7923103E+001	1,4478380E+003	7,6888446E+002	1,2268054E+003	1,6953763E-007	2,1874081E-001	-2,0823216E-002	2,1972971E-001	-5,4379334E+000	6,858182974585563E-009
2,8779956E+003	2,0973146E+000	-4,0623239E-001	2,1362944E+000	1,0961975E+001	6,362600302236388E+000	1,3574262E+001	4,8641868E-006	-1,3613049E+002	-4,9224615E+000	1,000000000000000E+000	9,8104956E-006	4,5922957E-006	0	14	1,207915195434200E-008	1,3592929E+001	8,5588843E-003	-5,5996296E+001	1,8637485E+003	1,0422949E+003	1,5450502E+003	-5,5935886E+001	1,8645857E+003	1,0443922E+003	1,5446439E+003	6,6027745E-008	4,5955914E-001	-8,9012772E-002	4,6810028E-001	-1,0961975E+001	5,545686070996049E-009
1,9481171E+003	4,2970076E+000	6,2845979E+000	7,6131759E+000	-5,5638168E+001	7,038600334344665E+000	1,3574170E+001	6,1046958E-006	1,2999527E+001	8,8583088E+000	1,000000000000000E+000	3,7227073E-005	4,8898219E-006	0	14	8,942131863528226E-009	1,3582827E+001	1,1628110E-002	-5,3405102E+001	2,3780232E+003	1,4176666E+003	1,9092449E+003	-5,3412224E+001	2,3856306E+003	1,4219636E+003	1,9155294E+003	8,2866180E-008	7,4136898E-002	1,0842909E-001	1,3135123E-001	5,5638168E+001	-3,137020090813772E-009
1,3187339E+003	7,7985549E-001	2,3488832E+000	2,4749599E+000	-7,1633255E+001	7,483600355481030E+000	1,3574221E+001	5,7553925E-006	5,1380882E+001	4,6279434E+001	1,000000000000000E+000	1,1936806E-005	4,8230299E-006	0	14	5,626693657531076E-009	1,3584310E+001	1,4456241E-002	-5,0660530E+001	2,9973359E+003	1,9000526E+003	2,3181506E+003	-5,0677448E+001	2,9996470E+003	1,9008325E+003	2,3204995E+003	7,8124970E-008	1,2731449E-001	3,8346443E-001	4,0404695E-001	7,1633255E+001	-3,315438205997150E-009
8,9299957E+002	1,5891711E+000	5,7268481E+000	5,9432530E+000	-7,4490936E+001	7,929600376664894E+000	1,3574207E+001	7,0869546E-006	3,1120977E+001	2,8895891E+001	1,000000000000000E+000	2,8455148E-005	4,7878070E-006	0	14	5,590381639346257E-009	1,3576653E+001	1,7848533E-002	-4,7665920E+001	3,7279141E+003	2,5105725E+003	2,7557883E+003	-4,7707081E+001	3,7332188E+003	2,5121616E+003	2,7615151E+003	9,6199791E-008	4,4990651E-002	1,6213144E-001	1,6825803E-001	7,4490936E+001	-3,631201818481931E-011
6,0441974E+002	4,6572213E+000	4,4626923E+000	6,4502196E+000	-4,3778061E+001	8,374600397801260E+000	1,3574251E+001	6,5159620E-006	5,9004421E+001	2,8244209E+001	1,000000000000000E+000	3,0791703E-005	4,7737449E-006	0	14	5,768283343210593E-009	1,3609046E+001	2,1785190E-002	-4,4415722E+001	4,5635430E+003	3,2596504E+003	3,1938384E+003	-4,4414822E+001	4,5699927E+003	3,2643076E+003	3,1983010E+003	8,8449305E-008	1,1193808E-001	1,0726251E-001	1,5503348E-001	4,3778061E+001	1,779017038643365E-010
4,0908368E+002	7,2385979E+000	6,7947893E+000	9,9280643E+000	-4,3188614E+001	8,819600418937625E+000	1,3574253E+001	7,0160440E-006	5,7257446E+001	2,6819754E+001	1,000000000000000E+000	4,7328307E-005	4,7671233E-006	0	14	8,889867074483643E-009	1,3570118E+001	2,6257809E-002	-4,1101963E+001	5,5081035E+003	4,1505811E+003	3,6210332E+003	-4,1105717E+001	5,5180249E+003	4,1578198E+003	3,6278279E+003	9,5237560E-008	7,3438756E-002	6,8936117E-002	1,0072457E-001	4,3188614E+001	3,121583731273050E-009
2,7686047E+002	7,4505892E+000	4,1911945E+000	8,5485315E+000	-2,9359144E+001	9,260600439884001E+000	1,3574419E+001	7,1399436E-006	1,3715807E+002	3,2969620E+001	1,000000000000000E+000	4,0728399E-005	4,7643734E-006	0	14	1,061219765978826E-008	1,3614698E+001	3,1149326E-002	-3,7715904E+001	6,5379692E+003	5,1718853E+003	3,9995808E+003	-3,7705029E+001	6,5464272E+003	5,1793359E+003	4,0037720E+003	9,6920587E-008	1,0195477E-001	5,7352819E-002	1,1697915E-001	2,9359144E+001	1,722330585304614E-009
1,8742110E+002	9,9946575E+000	4,3347154E+000	1,0894170E+001	-2,3446533E+001	9,711600461305352E+000	1,3574219E+001	7,0335873E-006	1,9590300E+002	3,1015156E+001	1,000000000000000E+000	5,1884956E-005	4,7626349E-006	0	14	8,422159988968917E-009	1,3615741E+001	3,6412306E-002	-3,4350990E+001	7,6454121E+003	6,3120254E+003	4,3140078E+003	-3,4335564E+001	7,6561099E+003	6,3220200E+003	4,3183423E+003	9,5475450E-008	8,4213100E-002	3,6523491E-002	9,1792218E-002	2,3446533E+001	-2,190037670819340E-009
1,2699121E+002	1,7927122E+001	2,1779194E-001	1,7928446E+001	-6,9603723E-001	1,014960048210924E+001	1,3574321E+001	7,4138775E-006	5,7544614E+003	8,4918636E-001	1,000000000000000E+000	8,5385953E-005	4,7625963E-006	0	14	1,290135959739776E-008	1,3573125E+001	4,1856982E-002	-3,0940201E+001	8,7886895E+003	7,5380977E+003	4,5186445E+003	-3,0881432E+001	8,8041826E+003	7,5560249E+003	4,5188623E+003	1,0063835E-007	5,5773165E-002	6,7757361E-004	5,5777282E-002	6,9603723E-001	4,479199608428845E-009
8,5907173E+001	-3,1712503E+000	7,5614753E+000	8,1995573E+000	-1,1275297E+002	1,059060050305561E+001	1,3574343E+001	7,6497272E-006	2,4501021E+002	2,0836099E+002	1,000000000000000E+000	3,9043538E-005	4,7616641E-006	0	14	1,790991670105137E-008	1,3570278E+001	4,7505289E-002	-2,7620148E+001	9,9766152E+003	8,8396865E+003	4,6252349E+003	-2,7667063E+001	9,9773145E+003	8,8365156E+003	4,6327964E+003	1,0384002E-007	-4,7168244E-002	1,1246716E-001	1,2195780E-001	1,1275297E+002	5,008557103653605E-009
5,8157570E+001	8,8866148E+000	1,5605922E+000	9,0226030E+000	-9,9602404E+000	1,104960052485694E+001	1,3574499E+001	6,3009966E-006	1,7535754E+003	5,2461365E+001	1,000000000000000E+000	4,2963671E-005	4,7617823E-006	0	14	1,819840439765762E-008	1,3544539E+001	5,2943397E-002	-2,4510206E+001	1,1118399E+004	1,0116491E+004	4,6125273E+003	-2,4498535E+001	1,1127133E+004	1,0125378E+004	4,6140879E+003	8,5532875E-008	1,0916229E-001	1,9170159E-002	1,1083276E-001	9,9602404E+000	2,884876966062506E-010
3,9407314E+001	1,4959059E+001	9,1630430E+000	1,7542372E+001	-3,1489193E+001	1,149960054623079E+001	1,3574401E+001	6,6398597E-006	4,4076141E+002	1,2025591E+002	1,000000000000000E+000	8,3543171E-005	4,7623648E-006	0	14	1,203010270642027E-008	1,3594613E+001	5,8157012E-002	-2,1513096E+001	1,2211793E+004	1,1361043E+004	4,4782339E+003	-2,1527334E+001	1,2229070E+004	1,1376002E+004	4,4873970E+003	9,0132119E-008	4,8610229E-002	2,9775776E-002	5,7004835E-002	3,1489193E+001	-6,168301691237351E-009
2,6682035E+001	8,5620613E+000	7,2873640E+000	1,1243423E+001	-4,0401855E+001	1,191860056613223E+001	1,3574482E+001	5,9968429E-006	8,1852264E+002	3,4385431E+002	1,000000000000000E+000	5,3560532E-005	4,7637209E-006	0	14	1,597517435869930E-008	1,3530548E+001	6,3108854E-002	-1,8758673E+001	1,3247807E+004	1,2544103E+004	4,2602666E+003	-1,8776594E+001	1,3258259E+004	1,2552665E+004	4,2675542E+003	8,1404039E-008	6,7730024E-002	5,7646550E-002	8,8940881E-002	4,0401855E+001	3,945071652279037E-009
1,8042725E+001	2,2692310E+001	5,1374969E+000	2,3266603E+001	-1,2756608E+001	1,240860058940598E+001	1,3574485E+001	1,0575406E-005	1,7169847E+003	8,3715065E+001	1,000000000000000E+000	1,1081461E-004	4,7628187E-006	0	14	3,315066979868991E-009	1,3561097E+001	6,7480594E-002	-1,6393057E+001	1,4168206E+004	1,3592243E+004	3,9986248E+003	-1,6387098E+001	1,4191427E+004	1,3614936E+004	4,0037622E+003	1,4355570E-007	4,1919176E-002	9,4904238E-003	4,2980060E-002	1,2756608E+001	-1,266010737883031E-008
1,2226137E+001	1,9550493E+001	3,8984985E+000	1,9935398E+001	-1,1277240E+001	1,277660060688504E+001	1,3574477E+001	6,1856754E-006	3,3391313E+003	1,2769633E+002	1,000000000000000E+000	9,4941883E-005	4,7624776E-006	0	14	2,388352796384020E-008	1,3630574E+001	7,1376577E-002	-1,4385589E+001	1,4987278E+004	1,4517362E+004	3,7235332E+003	-1,4381461E+001	1,5007185E+004	1,4536913E+004	3,7274316E+003	8,3967308E-008	4,9193520E-002	9,8095154E-003	5,0162029E-002	1,1277240E+001	2,056846098397121E-008
8,2759562E+000	2,2900488E+001	5,6262884E+000	2,3581507E+001	-1,3803278E+001	1,330960063220118E+001	1,3574451E+001	9,0456715E-006	3,4180623E+003	1,9457222E+002	1,000000000000000E+000	1,1231835E-004	4,7629846E-006	0	14	-1,119061581691009E-008	1,3581102E+001	7,4827276E-002	-1,2825015E+001	1,5710165E+004	1,5318236E+004	3,4872517E+003	-1,2826481E+001	1,5733743E+004	1,5341137E+004	3,4928779E+003	1,2279003E-007	4,1181449E-002	1,0117632E-002	4,2406112E-002	1,3803278E+001	-3,507414378075029E-008
5,6043758E+000	2,1585741E+001	5,8843803E+000	2,2373425E+001	-1,5248597E+001	1,370860065115266E+001	1,3574608E+001	5,3127765E-006	4,8260532E+003	3,3383255E+002	1,000000000000000E+000	1,0654957E-004	4,7623275E-006	0	14	3,162460915920443E-008	1,3511947E+001	7,8046374E-002	-1,1881797E+001	1,6388283E+004	1,6037155E+004	3,3742378E+003	-1,1886384E+001	1,6410619E+004	1,6058741E+004	3,3801221E+003	7,2118858E-008	4,3122310E-002	1,1755357E-002	4,4695884E-002	1,5248597E+001	4,281522497611452E-008
3,7924759E+000	2,4052736E+001	3,5095451E+000	2,4307428E+001	-8,3014698E+000	1,428760067865369E+001	1,3574531E+001	6,7451001E-006	1,1957667E+004	2,4927005E+002	1,000000000000000E+000	1,1578275E-004	4,7632661E-006	0	14	6,651011602001904E-008	1,3574408E+001	8,1048533E-002	-1,1252315E+001	1,7015328E+004	1,6688250E+004	3,3202002E+003	-1,1248107E+001	1,7039604E+004	1,6712303E+004	3,3237097E+003	9,1561567E-008	4,0708631E-002	5,9398133E-003	4,1139688E-002	8,3014698E+000	3,488550686081461E-008
2,5682116E+000	2,2807518E+001	9,7849169E+000	2,4817886E+001	-2,3220375E+001	1,512960071864654E+001	1,3574548E+001	6,9044631E-006	6,3333315E+003	9,8450269E+002	1,000000000000000E+000	1,1819459E-004	4,7624762E-006	0	14	2,604725389912548E-008	1,3655951E+001	8,4186882E-002	-1,1505884E+001	1,7677123E+004	1,7321887E+004	3,5260303E+003	-1,1522195E+001	1,7701424E+004	1,7344693E+004	3,5358152E+003	9,3724964E-008	3,7029549E-002	1,5886474E-002	4,0293518E-002	2,3220375E+001	-4,046286212089356E-008
1,7399776E+000	2,8322386E+001	7,4986892E+000	2,9298258E+001	-1,4829479E+001	1,636160077716340E+001	1,3574606E+001	8,2269044E-006	1,2198069E+004	7,9905786E+002	1,000000000000000E+000	1,3954326E-004	4,7628519E-006	0	14	-7,119386822872306E-008	1,3675355E+001	8,7251037E-002	-1,2064851E+001	1,8319074E+004	1,7914436E+004	3,8290286E+003	-1,2069263E+001	1,8348338E+004	1,7942758E+004	3,8365273E+003	1,1167698E-007	3,2994855E-002	8,7357806E-003	3,4131721E-002	1,4829479E+001	-9,724112212784854E-008
1,1772907E+000	3,3546638E+001	1,2056316E+000	3,3568295E+001	-2,0582654E+000	1,817060086308629E+001	1,3574424E+001	7,8449966E-006	1,1212999E+005	1,4464137E+002	1,000000000000000E+000	1,5989492E-004	4,7632720E-006	0	14	-1,546743163234067E-007	1,3635706E+001	9,1243766E-002	-1,3053118E+001	1,9155691E+004	1,8660729E+004	4,3263950E+003	-1,3034002E+001	1,9188645E+004	1,8694275E+004	4,3276006E+003	1,0649131E-007	2,9770795E-002	1,0699318E-003	2,9790016E-002	2,0582654E+000	-8,348044809468369E-008
7,9621863E-001	1,7983145E+001	2,4609027E+000	1,8150745E+001	-7,7922382E+000	2,083560098966700E+001	1,3574559E+001	7,5977505E-006	8,1225680E+004	1,4931152E+003	1,000000000000000E+000	8,6445667E-005	4,7626513E-006	0	14	-1,293975755839811E-007	1,3565267E+001	9,6157216E-002	-1,4774163E+001	2,0189850E+004	1,9522342E+004	5,1486089E+003	-1,4767909E+001	2,0207865E+004	1,9540324E+004	5,1510698E+003	1,0313612E-007	5,4585427E-002	7,4697402E-003	5,5094156E-002	7,7922382E+000	2,527674073942560E-008
5,3938830E-001	4,0876266E+001	1,6641563E+001	4,4134010E+001	-2,2152241E+001	2,475960117604700E+001	1,3574458E+001	8,0574664E-006	1,7730643E+004	2,5209600E+003	1,000000000000000E+000	2,1021880E-004	4,7631929E-006	0	14	7,116579506964627E-008	1,3509661E+001	1,0159098E-001	-1,7027761E+001	2,1328338E+004	2,0393367E+004	6,2456846E+003	-1,7038330E+001	2,1372297E+004	2,0434244E+004	6,2623262E+003	1,0937574E-007	2,0985747E-002	8,5437261E-003	2,2658262E-002	2,2152241E+001	2,005633706536274E-007
3,6507010E-001	3,0527634E+001	1,1199704E+001	3,2517223E+001	-2,0146624E+001	3,054860145100974E+001	1,3574464E+001	7,1905029E-006	3,8925777E+004	4,6176763E+003	1,000000000000000E+000	1,5484962E-004	4,7620802E-006	0	14	4,748743729814275E-007	1,3477108E+001	1,0819113E-001	-1,9463158E+001	2,2719299E+004	2,1421025E+004	7,5700850E+003	-1,9464134E+001	2,2751813E+004	2,1451553E+004	7,5812847E+003	9,7607220E-008	2,8871292E-002	1,0592041E-002	3,0752933E-002	2,0146624E+001	4,037085779117812E-007
2,4724665E-001	3,0973658E+001	1,2007318E+001	3,3219620E+001	-2,1189432E+001	3,908860185663798E+001	1,3574330E+001	6,9843086E-006	5,3609738E+004	7,0040049E+003	1,000000000000000E+000	1,5820512E-004	4,7624003E-006	0	14	9,220457922832187E-007	1,3496712E+001	1,1741870E-001	-2,2116774E+001	2,4655361E+004	2,2841182E+004	9,2826328E+003	-2,2115524E+001	2,4688578E+004	2,2872156E+004	9,2946396E+003	9,4807312E-008	2,8067464E-002	1,0880697E-002	3,0102693E-002	2,1189432E+001	4,471714193017912E-007
1,6750640E-001	2,5950319E+001	2,0451101E+001	3,3040379E+001	-3,8241173E+001	5,168660245501087E+001	1,3574499E+001	7,2305834E-006	4,6459230E+004	1,7799811E+004	1,000000000000000E+000	1,5734963E-004	4,7623435E-006	0	14	1,063510658614468E-006	1,3562701E+001	1,2983522E-001	-2,5379921E+001	2,7262885E+004	2,4631623E+004	1,1685378E+004	-2,5395359E+001	2,7295098E+004	2,4657574E+004	1,1705829E+004	9,8151546E-008	2,3771286E-002	1,8733833E-002	3,0265996E-002	3,8241173E+001	1,414648663312492E-007
1,1320493E-001	2,7875370E+001	6,3484659E+000	2,8589146E+001	-1,2829974E+001	7,031960334003088E+001	1,3574427E+001	7,0155197E-006	2,2145527E+005	1,0919965E+004	1,000000000000000E+000	1,3615721E-004	4,7625490E-006	0	14	4,454286331842165E-007	1,3653145E+001	1,4508618E-001	-2,9206909E+001	3,0463977E+004	2,6590885E+004	1,4865353E+004	-2,9191765E+001	3,0491406E+004	2,6618760E+004	1,4871701E+004	9,5231655E-008	3,4105018E-002	7,7672354E-003	3,4978312E-002	1,2829974E+001	-6,180820254302514E-007
7,6773763E-002	2,7003801E+001	2,3960180E+001	3,6101185E+001	-4,1582298E+001	9,778560464459588E+001	1,3574357E+001	6,9768921E-006	8,6520141E+004	3,8111363E+004	1,000000000000000E+000	1,7192926E-004	4,7624271E-006	0	14	-1,215637720188826E-006	1,3739100E+001	1,6304143E-001	-3,2778728E+001	3,4234945E+004	2,8783635E+004	1,8534666E+004	-3,2787968E+001	3,4270621E+004	2,8810639E+004	1,8558627E+004	9,4706827E-008	2,0719629E-002	1,8384304E-002	2,7699921E-002	4,1582298E+001	-1,661066353373043E-006
5,1879965E-002	5,1361031E+001	3,7412041E+001	6,3542240E+001	-3,6070080E+001	1,384236065747973E+002	1,3574177E+001	7,3510109E-006	8,1999094E+004	2,8425416E+004	1,000000000000000E+000	3,0258327E-004	4,7619233E-006	0	14	-3,651683990226578E-006	1,3779591E+001	1,8629186E-001	-3,5849041E+001	3,9121137E+004	3,1710141E+004	2,2911359E+004	-3,5849400E+001	3,9184680E+004	3,1761502E+004	2,2948771E+004	9,9783925E-008	1,2720632E-002	9,2658736E-003	1,5737563E-002	3,6070080E+001	-2,436046270037751E-006
3,5195883E-002	7,1235435E+001	5,1241203E+001	8,7750488E+001	-3,5728291E+001	1,983176094196097E+002	1,3574244E+001	6,9998823E-006	8,8248828E+004	3,0091822E+004	1,000000000000000E+000	4,1789535E-004	4,7623139E-006	0	14	-5,493390338888755E-006	1,3744391E+001	2,1623488E-001	-3,8179878E+001	4,5405422E+004	3,5692023E+004	2,8066563E+004	-3,8175152E+001	4,5493094E+004	3,5763258E+004	2,8117803E+004	9,5018109E-008	9,2511773E-003	6,6545741E-003	1,1395948E-002	3,5728291E+001	-1,841706348662178E-006
2,3795672E-002	4,8832306E+001	3,3553768E+001	5,9249046E+001	-3,4493824E+001	2,868976136269339E+002	1,3574812E+001	6,8378272E-006	1,9933375E+005	6,3929414E+004	1,000000000000000E+000	2,8216821E-004	4,7624094E-006	0	14	-4,269281277057530E-006	1,3626044E+001	2,5215104E-001	-4,0780460E+001	5,2946109E+004	4,0091738E+004	3,4582410E+004	-4,0773449E+001	5,3005004E+004	4,0140570E+004	3,4615965E+004	9,2822219E-008	1,3910556E-002	9,5582530E-003	1,6877908E-002	3,4493824E+001	1,224109061831225E-006
1,6098291E-002	4,8880161E+001	2,7385115E+001	5,6028694E+001	-2,9259735E+001	4,178246198456327E+002	1,3575149E+001	6,8061404E-006	3,6101544E+005	8,6245000E+004	1,000000000000000E+000	2,6682994E-004	4,7623803E-006	0	14	2,515032111427394E-006	1,3439142E+001	2,9006842E-001	-4,3454319E+001	6,0908285E+004	4,4214723E+004	4,1891258E+004	-4,3441406E+001	6,0962605E+004	4,4263602E+004	4,1918645E+004	9,2394366E-008	1,5570825E-002	8,7235570E-003	1,7847998E-002	2,9259735E+001	6,784313388484925E-006
1,0915886E-002	1,1534185E+002	8,5042152E+001	1,4330356E+002	-3,6401546E+001	6,109006290162506E+002	1,3575025E+001	6,7963147E-006	1,7144583E+005	6,0378375E+004	1,000000000000000E+000	6,8246498E-004	4,7623730E-006	0	14	1,542371471198582E-005	1,3270081E+001	3,3001804E-001	-4,5151226E+001	6,9296977E+004	4,8870859E+004	4,9129523E+004	-4,5133240E+001	6,9438617E+004	4,8986203E+004	4,9214566E+004	9,2260137E-008	5,6165932E-003	4,1411435E-003	6,9781938E-003	3,6401546E+001	1,290868260055843E-005
7,3873415E-003	6,7410248E+001	6,0638386E+001	9,0670586E+001	-4,1972729E+001	8,961926425668935E+002	1,3574842E+001	7,0135020E-006	3,5529109E+005	1,5890836E+005	1,000000000000000E+000	4,3179313E-004	4,7622184E-006	0	14	3,038109551584653E-005	1,3221290E+001	3,7785202E-001	-4,5679405E+001	7,9343695E+004	5,5435258E+004	5,6765781E+004	-4,5675175E+001	7,9434172E+004	5,5502668E+004	5,6826418E+004	9,5207184E-008	8,1996080E-003	7,3758960E-003	1,1028935E-002	4,1972729E+001	1,495738080386071E-005
5,0018891E-003	1,4108186E+002	6,5165756E+001	1,5540485E+002	-2,4792231E+001	1,317534662579565E+003	1,3575616E+001	5,6160429E-006	4,8827741E+005	8,5857133E+004	1,000000000000000E+000	7,4010465E-004	4,7624299E-006	0	14	3,847404426201299E-005	1,3298745E+001	4,3025470E-001	-4,5952934E+001	9,0343523E+004	6,2811246E+004	6,4936117E+004	-4,5917412E+001	9,0488461E+004	6,2952328E+004	6,5001281E+004	7,6241243E-008	5,8417376E-003	2,6983006E-003	6,4348057E-003	2,4792231E+001	8,092948746166458E-006