File: SAMPLE-MPT/20220309_SSB_Cell_03_Form01/20220309_(Form02C)EIS_charging_10bis16V_step_01V+(1C+EIS)50cycle_15_GEIS_C08.mpt
EC-Lab ASCII FILE
Nb header lines : 72

Galvano Electrochemical Impedance Spectroscopy

Run on channel : 8 (SN 14384)
User :
CE vs. WE compliance from -10 V to 10 V
Electrode connection : standard
Potential control : Ewe-Ece
Ewe ctrl range : min = 0,00 V, max = 5,00 V
Safety Limits :
	Do not start on E overload
Acquisition started on : 03/09/2022 13:55:05.456
Technique started on : 03/10/2022 03:51:26.025
Loaded Setting File :  C:\DATA\x_Data_VMP3\Extern\InES\Binbin\001_Testing_Profiles\20220308_(Form02C)EIS_charging_10bis16V_step_01V+(1C+EIS)50cycle.mps
Saved on :
	File : 20220309_(Form02C)EIS_charging_10bis16V_step_01V+(1C+EIS)50cycle_15_GEIS_C08.mpr
	Directory : C:\DATA\x_Data_VMP3\Extern\InES\Binbin\20220309_SSB_Cell_03_Form01\
	Host : 134.169.45.143
Device : VMP3 (SN 0787)
Address : 134.169.45.150
EC-Lab for windows v11.42 (software)
Internet server v11.40 (firmware)
Command interpretor v11.40 (firmware)
Electrode material :
Initial state :
Electrolyte :
Comments :
Electrode surface area : 0,000 cm²
Characteristic mass : 0,001 g
Equivalent Weight : 0,000 g/eq.
Density : 0,000 g/cm3
Volume (V) : 0,001 cm³
Record Ece
Record Power
Cycle Definition : Charge/Discharge alternance
Mode                Single sine
Is                  0,000
unit Is             µA
vs.                 <None>
tIs (h:m:s)         0:00:0,0000
record              0
dE (mV)             0,000
dt (s)              0,000
fi                  1,000
unit fi             MHz
ff                  5,000
unit ff             mHz
Nd                  6
Points              per decade
spacing             Logarithmic
Ia/Va               Ia
Ia                  5,000
unit  Ia            µA
va pourcent         0,10
pw                  0,10
Na                  2
corr                0
E range min (V)     0,000
E range max (V)     5,000
I Range             10 µA
Bandwidth           5
nc cycles           0
goto Ns'            0
nr cycles           0
inc. cycle          0

Number of loops : 1
Loop 0 from point number 0 to 49

freq/Hz	Re(Z)/Ohm	-Im(Z)/Ohm	|Z|/Ohm	Phase(Z)/deg	time/s	<Ewe>/V	<I>/mA	Cs/µF	Cp/µF	cycle number	|Ewe|/V	|I|/A	Ns	I Range	(Q-Qo)/mA.h	<Ece>/V	|Ece|/V	Phase(Zce)/deg	|Zce|/Ohm	Re(Zce)/Ohm	-Im(Zce)/Ohm	Phase(Zwe-ce)/deg	|Zwe-ce|/Ohm	Re(Zwe-ce)/Ohm	-Im(Zwe-ce)/Ohm	P/W	Re(Y)/Ohm-1	Im(Y)/Ohm-1	|Y|/Ohm-1	Phase(Y)/deg	dq/mA.h
1,0000186E+006	-2,8372356E+001	4,7274616E+001	5,5135105E+001	-1,2097052E+002	5,018056854900997E+004	1,3575960E+001	1,1651785E-005	3,3665423E-003	2,4750482E-003	1,000000000000000E+000	2,8287855E-004	5,1306433E-006	0	14	1,486327838211171E-009	1,1981535E+001	2,6111034E-004	8,9321754E+001	5,0892319E+001	6,0243279E-001	-5,0888752E+001	1,7258488E+002	2,8004118E+001	-2,7769924E+001	-3,6141357E+000	0,0000000E+000	-9,3333814E-003	1,5551475E-002	1,8137265E-002	1,2097052E+002	1,486327838211171E-009
6,7700600E+005	-1,4469193E+001	3,3255379E+001	3,6266758E+001	-1,1351353E+002	5,018108454903588E+004	1,3576072E+001	1,4374639E-005	7,0691258E-003	5,9439079E-003	1,000000000000000E+000	1,8571306E-004	5,1207517E-006	0	14	3,332800485217212E-009	1,1982471E+001	2,8455674E-004	5,4475769E+001	5,5569328E+001	3,2288403E+001	-4,5226200E+001	3,3892933E+001	2,1466831E+001	1,7819210E+001	-1,1970821E+001	0,0000000E+000	-1,1000865E-002	2,5283922E-002	2,7573461E-002	1,1351353E+002	1,846472647006042E-009
4,5833025E+005	-4,9019284E+000	3,6801350E+001	3,7126381E+001	-9,7587120E+001	5,018146954905521E+004	1,3576065E+001	1,6110778E-005	9,4357813E-003	9,2712883E-003	1,000000000000000E+000	1,9365354E-004	5,2160631E-006	0	14	7,546169090934049E-009	1,1982394E+001	2,0303359E-004	2,3062840E+001	3,8924679E+001	3,5813652E+001	-1,5248371E+001	-3,4885860E+001	3,7683758E+001	3,0911724E+001	2,1552979E+001	0,0000000E+000	-3,5563272E-003	2,6699215E-002	2,6935024E-002	9,7587120E+001	4,213368605716837E-009
3,1029172E+005	1,4076324E+001	3,4223141E+001	3,7004948E+001	-6,7642136E+001	5,018185454907466E+004	1,3576086E+001	1,5195752E-005	1,4987531E-002	1,2818884E-002	1,000000000000000E+000	1,7944659E-004	4,8492593E-006	0	14	7,121256318467001E-009	1,1982031E+001	9,1672708E-005	-4,6190600E+000	1,8904476E+001	1,8843077E+001	1,5223871E+000	-4,7356861E+001	4,8594547E+001	3,2919403E+001	3,5745529E+001	0,0000000E+000	1,0279446E-002	2,4991957E-002	2,7023414E-002	6,7642136E+001	-4,249127724670476E-010
2,1007459E+005	2,7068651E+001	1,4388214E+001	3,0655058E+001	-2,7992668E+001	5,018223954909400E+004	1,3576146E+001	1,7412965E-005	5,2655011E-002	1,1599765E-002	1,000000000000000E+000	1,4733040E-004	4,8060715E-006	0	14	9,161976568571440E-009	1,1982528E+001	9,4839539E-005	-3,1705540E+001	1,9733276E+001	1,6788288E+001	1,0370901E+001	-2,9446583E+001	5,0363132E+001	4,3856941E+001	2,4759115E+001	0,0000000E+000	2,8804632E-002	1,5310967E-002	3,2621045E-002	2,7992668E+001	2,040720250104439E-009
1,4222091E+005	1,8822721E+001	-6,5986352E+000	1,9945847E+001	1,9319012E+001	5,018249354910676E+004	1,3576135E+001	1,5805239E-005	-1,6959091E-001	-1,8561192E-002	1,000000000000000E+000	9,7158554E-005	4,8711172E-006	0	14	9,426220670926948E-009	1,1982490E+001	1,3566553E-004	-4,8561867E+001	2,7851009E+001	1,8432104E+001	2,0879087E+001	-2,0972738E+001	3,9898037E+001	3,7254826E+001	1,4280453E+001	0,0000000E+000	4,7312669E-002	-1,6586287E-002	5,0135750E-002	-1,9319012E+001	2,642441023555076E-010
9,6283031E+004	9,2156944E+000	-5,8715448E+000	1,0927217E+001	3,2502209E+001	5,018274754911952E+004	1,3575953E+001	1,4847595E-005	-2,8152567E-001	-8,1283741E-002	1,000000000000000E+000	5,2379582E-005	4,7934973E-006	0	14	9,776844033664941E-009	1,1981173E+001	1,6049267E-004	-4,0854195E+001	3,3481331E+001	2,5324497E+001	2,1901356E+001	-2,4895617E+001	3,8078598E+001	3,4540192E+001	1,6029812E+001	0,0000000E+000	7,7180751E-002	-4,9173743E-002	9,1514617E-002	-3,2502209E+001	3,506233627379933E-010
6,5181484E+004	2,2691751E+000	-4,3944297E+000	4,9457221E+000	6,2689285E+001	5,018313254913886E+004	1,3575950E+001	1,5424912E-005	-5,5563986E-001	-4,3867105E-001	1,000000000000000E+000	2,4011510E-005	4,8550060E-006	0	14	1,237364671285630E-008	1,1982966E+001	1,7489264E-004	-3,1557770E+001	3,6023159E+001	3,0695799E+001	1,8853008E+001	-2,3682461E+001	3,5996387E+001	3,2964973E+001	1,4458578E+001	0,0000000E+000	9,2770219E-002	-1,7965657E-001	2,0219494E-001	-6,2689285E+001	2,596802679191355E-009
4,4128563E+004	1,1717652E+000	-5,5602055E+000	5,6823339E+000	7,8099548E+001	5,018351754915819E+004	1,3576012E+001	1,4448257E-005	-6,4864862E-001	-6,2106591E-001	1,000000000000000E+000	2,7248278E-005	4,7952617E-006	0	14	1,059063149061027E-008	1,1981478E+001	2,0793905E-004	-2,5950003E+001	4,3363441E+001	3,8991375E+001	1,8975264E+001	-1,8470051E+001	4,2344322E+001	4,0163139E+001	1,3415058E+001	0,0000000E+000	3,6290001E-002	-1,7220166E-001	1,7598403E-001	-7,8099548E+001	-1,783015222246023E-009
2,9876783E+004	3,8471084E+000	-1,3336898E+000	4,0717282E+000	1,9120066E+001	5,018390254917764E+004	1,3575952E+001	1,4198211E-005	-3,9942153E+000	-4,2853230E-001	1,000000000000000E+000	1,9273262E-005	4,7334352E-006	0	14	9,599387518063748E-009	1,1982623E+001	2,1333800E-004	-2,3681217E+001	4,5070438E+001	4,1275249E+001	1,8102432E+001	-2,0386488E+001	4,8137489E+001	4,5122356E+001	1,6768742E+001	0,0000000E+000	2,3204748E-001	-8,0444664E-002	2,4559596E-001	-1,9120066E+001	-9,912439725465244E-010
2,0227139E+004	-8,4386873E-001	3,2415843E+000	3,3496244E+000	-1,0459171E+002	5,018428754919698E+004	1,3575956E+001	1,3276414E-005	2,4273274E+000	2,2732687E+000	1,000000000000000E+000	1,5775366E-005	4,7095923E-006	0	14	1,203907260499667E-008	1,1981019E+001	2,3263300E-004	-2,3092205E+001	4,9395569E+001	4,5437740E+001	1,9373533E+001	-2,6891167E+001	5,0000568E+001	4,4593872E+001	2,2615118E+001	0,0000000E+000	-7,5211242E-002	2,8891170E-001	2,9854095E-001	1,0459171E+002	2,439685086932918E-009
1,3695073E+004	1,7321135E-001	1,3760597E+000	1,3869183E+000	-8,2825630E+001	5,018467254921631E+004	1,3576136E+001	1,5085675E-005	8,4453669E+000	8,3136415E+000	1,000000000000000E+000	6,5409454E-006	4,7161720E-006	0	14	7,516465610617868E-009	1,1982852E+001	2,5485447E-004	-1,9104826E+001	5,4038418E+001	5,1062054E+001	1,7686638E+001	-2,0408325E+001	5,4666615E+001	5,1235264E+001	1,9062698E+001	0,0000000E+000	9,0048142E-002	7,1537787E-001	7,2102302E-001	8,2825630E+001	-4,522606994378799E-009
9,2692256E+003	1,1999425E-001	-3,6867051E+000	3,6886573E+000	8,8135803E+001	5,018505754923564E+004	1,3575998E+001	1,8089902E-005	-4,6573434E+000	-4,6524153E+000	1,000000000000000E+000	1,7513634E-005	4,7479698E-006	0	14	1,288258675673306E-008	1,1981363E+001	2,8297803E-004	-1,7342501E+001	5,9599796E+001	5,6890385E+001	1,7765686E+001	-1,3871907E+001	5,8723087E+001	5,7010380E+001	1,4078981E+001	0,0000000E+000	8,8190986E-003	-2,7095786E-001	2,7110136E-001	-8,8135803E+001	5,366121146115196E-009
6,2722681E+003	2,2935016E+000	1,3218672E+000	2,6471651E+000	-2,9957138E+001	5,018544254925509E+004	1,3575817E+001	1,4176938E-005	1,9195864E+001	4,7865357E+000	1,000000000000000E+000	1,2720189E-005	4,8052120E-006	0	14	1,609505522076107E-008	1,1982299E+001	3,0432950E-004	-1,6158630E+001	6,3333210E+001	6,0831223E+001	1,7625484E+001	-1,6707516E+001	6,5907005E+001	6,3124725E+001	1,8947351E+001	0,0000000E+000	3,2729322E-001	1,8863651E-001	3,7776262E-001	2,9957138E+001	3,212468464028006E-009
4,2448467E+003	-3,0115559E+000	-6,9030792E-001	3,0896592E+000	1,6708971E+002	5,018586854927649E+004	1,3575804E+001	1,1541420E-005	-5,4314434E+001	-2,7113140E+000	1,000000000000000E+000	1,5038828E-005	4,8674715E-006	0	14	2,121962698636379E-008	1,1982126E+001	3,2353390E-004	-1,4882896E+001	6,6468575E+001	6,4238739E+001	1,7072075E+001	-1,4979037E+001	6,3380836E+001	6,1227184E+001	1,6381767E+001	0,0000000E+000	-3,1547850E-001	-7,2313875E-002	3,2366028E-001	-1,6708971E+002	5,124571765602720E-009
2,8779956E+003	-7,2442198E-001	-1,4739777E+000	1,6423756E+000	1,1617293E+002	5,018626954929659E+004	1,3575824E+001	6,8973632E-006	-3,7517948E+001	-3,0218710E+001	1,000000000000000E+000	7,5537132E-006	4,5992606E-006	0	14	2,552593443487833E-008	1,1982947E+001	3,2292152E-004	-1,3266397E+001	7,0211617E+001	6,8337921E+001	1,6112089E+001	-1,2215830E+001	6,9179909E+001	6,7613503E+001	1,4638111E+001	0,0000000E+000	-2,6856333E-001	-5,4644436E-001	6,0887414E-001	-1,1617293E+002	4,306307448514544E-009
1,9481171E+003	1,5015831E+000	-4,1720691E-001	1,5584651E+000	1,5527670E+001	5,018694454933063E+004	1,3575777E+001	7,0962869E-006	-1,9581844E+002	-1,4033383E+001	1,000000000000000E+000	7,6240717E-006	4,8920388E-006	0	14	2,699442397271115E-008	1,1981573E+001	3,7219550E-004	-9,8585110E+000	7,6081879E+001	7,4958420E+001	1,3026413E+001	-9,3645010E+000	7,7492737E+001	7,6460007E+001	1,2609206E+001	0,0000000E+000	6,1823726E-001	-1,7177394E-001	6,4165694E-001	-1,5527670E+001	1,468489537832815E-009
1,3187339E+003	3,6046963E+000	1,0333750E+000	3,7498932E+000	-1,5996255E+001	5,018738954935293E+004	1,3575738E+001	6,8936365E-006	1,1678983E+002	8,8691730E+000	1,000000000000000E+000	1,8085757E-005	4,8230058E-006	0	14	2,652701723167815E-008	1,1983024E+001	3,9493194E-004	-9,6256571E+000	8,1885025E+001	8,0732185E+001	1,3692017E+001	-9,9041195E+000	8,5612778E+001	8,4336884E+001	1,4725391E+001	0,0000000E+000	2,5634855E-001	7,3488630E-002	2,6667425E-001	1,5996255E+001	-4,674067410329981E-010
8,9299957E+002	1,0207415E-001	-1,2095418E+000	1,2138412E+000	8,5176193E+001	5,018783554937539E+004	1,3575736E+001	7,7314626E-006	-1,4734927E+002	-1,4630731E+002	1,000000000000000E+000	5,8143378E-006	4,7900317E-006	0	14	2,508018284864496E-008	1,1980905E+001	3,8706101E-004	-7,1675444E+000	8,0805519E+001	8,0174065E+001	1,0082203E+001	-6,3071170E+000	8,0764984E+001	8,0276138E+001	8,8726616E+000	0,0000000E+000	6,9277503E-002	-8,2091302E-001	8,2383102E-001	-8,5176193E+001	-1,446834383033195E-009
6,0441974E+002	3,5640781E+000	1,0225673E+000	3,7078695E+000	-1,6008678E+001	5,018828054939781E+004	1,3575809E+001	6,5420832E-006	2,5750735E+002	1,9585041E+001	1,000000000000000E+000	1,7706087E-005	4,7752724E-006	0	14	2,453280369683044E-008	1,1983501E+001	3,9345887E-004	-6,3812528E+000	8,2395065E+001	8,1884575E+001	9,1576977E+000	-6,7941360E+000	8,6052948E+001	8,5448654E+001	1,0180265E+001	0,0000000E+000	2,5923780E-001	7,4377738E-002	2,6969665E-001	1,6008678E+001	-5,473791518145125E-010
4,0908368E+002	5,1059723E-001	-2,1727986E+000	2,2319865E+000	7,6775711E+001	5,018872554942011E+004	1,3575768E+001	7,7911754E-006	-1,7905583E+002	-1,6968533E+002	1,000000000000000E+000	1,0640191E-005	4,7671397E-006	0	14	2,727436922656226E-008	1,1980657E+001	4,0524988E-004	-3,7869711E+000	8,5009026E+001	8,4823410E+001	5,6145911E+000	-2,3096695E+000	8,5403389E+001	8,5334007E+001	3,4417925E+000	0,0000000E+000	1,0249326E-001	-4,3615046E-001	4,4803137E-001	-7,6775711E+001	2,741565529731817E-009
2,7686047E+002	-1,8539437E+000	1,6075480E+000	2,4538374E+000	-1,3907156E+002	5,018916654944234E+004	1,3575801E+001	6,4584888E-006	3,5759811E+002	1,5347285E+002	1,000000000000000E+000	1,1688612E-005	4,7634012E-006	0	14	2,820453087163817E-008	1,1981592E+001	4,2047520E-004	-3,4753232E+000	8,8272057E+001	8,8109726E+001	5,3509326E+000	-4,6122131E+000	8,6536011E+001	8,6255783E+001	6,9584808E+000	0,0000000E+000	-3,0789670E-001	2,6697609E-001	4,0752497E-001	1,3907156E+002	9,301616450759147E-010
1,8742110E+002	4,7987175E+000	-1,5292031E+000	5,0364819E+000	1,7675474E+001	5,018961754946504E+004	1,3575853E+001	6,8649001E-006	-5,5531128E+002	-5,1193199E+001	1,000000000000000E+000	2,3980574E-005	4,7613739E-006	0	14	2,953949077975595E-008	1,1982299E+001	4,1281740E-004	-5,1264019E+000	8,6701317E+001	8,6354515E+001	7,7470455E+000	-3,9022768E+000	9,1365051E+001	9,1153229E+001	6,2178426E+000	0,0000000E+000	1,8917799E-001	-6,0285185E-002	1,9855130E-001	-1,7675474E+001	1,334959908117779E-009
1,2699121E+002	9,9316015E+000	-2,5068278E+000	1,0243090E+001	1,4166089E+001	5,019005654948705E+004	1,3575860E+001	7,0074584E-006	-4,9994467E+002	-2,9943947E+001	1,000000000000000E+000	4,8751568E-005	4,7594594E-006	0	14	3,221540203883934E-008	1,1981936E+001	4,4427667E-004	-3,3775184E+000	9,3346031E+001	9,3183891E+001	5,4994516E+000	-1,6623747E+000	1,0315891E+002	1,0311549E+002	2,9926238E+000	0,0000000E+000	9,4657995E-002	-2,3892554E-002	9,7626790E-002	-1,4166089E+001	2,675911259083382E-009
8,5907173E+001	1,3374732E+001	4,1759090E+000	1,4011483E+001	-1,7339605E+001	5,019049754950928E+004	1,3575797E+001	6,4704286E-006	4,4364917E+002	3,9407013E+001	1,000000000000000E+000	6,6680172E-005	4,7589660E-006	0	14	3,699360473783347E-008	1,1982718E+001	3,6090787E-004	-1,8732238E+000	7,5837456E+001	7,5796928E+001	2,4789822E+000	-4,2680783E+000	8,9419647E+001	8,9171661E+001	6,6548910E+000	0,0000000E+000	6,8126626E-002	2,1270752E-002	7,1370035E-002	1,7339605E+001	4,778202698994130E-009
5,8157570E+001	4,9600420E+000	5,4750824E+000	7,3877292E+000	-4,7825623E+001	5,019095654953236E+004	1,3575827E+001	7,1809959E-006	4,9983105E+002	2,7452545E+002	1,000000000000000E+000	3,5161873E-005	4,7594967E-006	0	14	3,881060413568270E-008	1,1980676E+001	4,0763759E-004	-8,3736837E-001	8,5647202E+001	8,5638054E+001	1,2516752E+000	-4,2463245E+000	9,0847481E+001	9,0598099E+001	6,7267575E+000	0,0000000E+000	9,0878971E-002	1,0031565E-001	1,3535959E-001	4,7825623E+001	1,816999397849237E-009
3,9407314E+001	4,8112373E+000	-1,5844804E+000	5,0654302E+000	1,8228218E+001	5,019140654955502E+004	1,3576159E+001	6,2640502E-006	-2,5489211E+003	-2,4940060E+002	1,000000000000000E+000	2,4108256E-005	4,7593699E-006	0	14	3,335438676925959E-008	1,1982203E+001	4,3010368E-004	-5,1577420E+000	9,0369881E+001	9,0003967E+001	8,1240768E+000	-3,9455574E+000	9,5040459E+001	9,4815201E+001	6,5395966E+000	0,0000000E+000	1,8750986E-001	-6,1752453E-002	1,9741660E-001	-1,8228218E+001	-5,456217366423110E-009
2,6682035E+001	8,0381956E+000	-7,4762735E+000	1,0977580E+001	4,2925697E+001	5,019182554957608E+004	1,3576179E+001	5,7941952E-006	-7,9784033E+002	-3,7006082E+002	1,000000000000000E+000	5,2259507E-005	4,7605672E-006	0	14	3,747828139502316E-008	1,1981211E+001	4,5833774E-004	-4,0350175E+000	9,6277969E+001	9,6039322E+001	6,7747092E+000	3,8621277E-001	1,0407988E+002	1,0407751E+002	-7,0156431E-001	0,0000000E+000	6,6702999E-002	-6,2040024E-002	9,1094755E-002	-4,2925697E+001	4,123894625763566E-009
1,8042725E+001	1,7112701E+000	1,8550897E+000	2,5238469E+000	-4,7309299E+001	5,019231554960075E+004	1,3576186E+001	1,0272367E-005	4,7550283E+003	2,5689575E+003	1,000000000000000E+000	1,2007583E-005	4,7576509E-006	0	14	2,495419824883053E-008	1,1981421E+001	4,4234152E-004	-4,5887055E+000	9,2974777E+001	9,2676765E+001	7,4382081E+000	-5,6231289E+000	9,4844437E+001	9,4388039E+001	9,2932978E+000	0,0000000E+000	2,6865354E-001	2,9123187E-001	3,9622056E-001	4,7309299E+001	-1,252408314619263E-008
1,2226137E+001	6,4381037E+000	-6,5194048E-002	6,4384336E+000	5,8017337E-001	5,019268354961916E+004	1,3576205E+001	5,6419367E-006	-1,9967464E+005	-2,0472853E+001	1,000000000000000E+000	3,0641309E-005	4,7591247E-006	0	14	3,604094149826172E-008	1,1982203E+001	4,2878988E-004	-3,7691751E+000	9,0098473E+001	8,9903587E+001	5,9228101E+000	-3,4793248E+000	9,6519600E+001	9,6341690E+001	5,8576159E+000	0,0000000E+000	1,5530932E-001	-1,5727059E-003	1,5531728E-001	-5,8017337E-001	1,108674324943119E-008
8,2759562E+000	4,4796748E+000	2,4399271E+000	5,1010518E+000	-2,8575634E+001	5,019321654964599E+004	1,3576166E+001	9,4438774E-006	7,8817939E+003	1,8032640E+003	1,000000000000000E+000	2,4270981E-005	4,7580347E-006	0	14	1,259419527135227E-008	1,1982223E+001	4,5253747E-004	-3,4590366E+000	9,5110168E+001	9,4936897E+001	5,7384634E+000	-4,7027822E+000	9,9752396E+001	9,9416573E+001	8,1783905E+000	0,0000000E+000	1,7215793E-001	9,3768597E-002	1,9603801E-001	2,8575634E+001	-2,344674622690946E-008
5,6043758E+000	-1,1554434E+001	-5,6853971E+000	1,2877448E+001	1,5380035E+002	5,019361554966611E+004	1,3576193E+001	7,4635068E-006	-4,9949604E+003	-9,7363025E+002	1,000000000000000E+000	6,1273218E-005	4,7581802E-006	0	14	6,027491294915105E-008	1,1981249E+001	5,2852393E-004	-7,3646317E+000	1,1107690E+002	1,1016058E+002	1,4238217E+001	-4,9572682E+000	9,8976372E+001	9,8606140E+001	8,5528202E+000	0,0000000E+000	-6,9676936E-002	-3,4284767E-002	7,7655137E-002	-1,5380035E+002	4,768071767779879E-008
3,7924759E+000	8,4033737E+000	1,0529703E+000	8,4690866E+000	-7,1421256E+000	5,019419454969524E+004	1,3576184E+001	5,7111656E-006	3,9854852E+004	6,1608447E+002	1,000000000000000E+000	4,0295585E-005	4,7579611E-006	0	14	7,834246063464433E-008	1,1981401E+001	4,5622425E-004	-3,4812312E+000	9,5886505E+001	9,5709572E+001	5,8223791E+000	-3,7781792E+000	1,0433971E+002	1,0411295E+002	6,8753495E+000	0,0000000E+000	1,1716031E-001	1,4680572E-002	1,1807649E-001	7,1421256E+000	1,806754768549328E-008
2,5682116E+000	2,1441863E+000	5,7465854E+000	6,1335778E+000	-6,9538269E+001	5,019503654973756E+004	1,3576235E+001	6,5119793E-006	1,0783990E+004	9,4661074E+003	1,000000000000000E+000	2,9191704E-005	4,7593271E-006	0	14	2,072812237267701E-008	1,1984074E+001	5,0133490E-004	-4,7065153E+000	1,0533735E+002	1,0498215E+002	8,6431227E+000	-7,6504416E+000	1,0808847E+002	1,0712634E+002	1,4389708E+001	0,0000000E+000	5,6994740E-002	1,5275030E-001	1,6303697E-001	6,9538269E+001	-5,761433826196733E-008
1,7399776E+000	1,5204556E+001	3,8162008E-001	1,5209344E+001	-1,4377685E+000	5,019626854979945E+004	1,3576259E+001	7,5743224E-006	2,3968742E+005	1,5089912E+002	1,000000000000000E+000	7,2372161E-005	4,7584012E-006	0	14	-7,211430146963317E-008	1,1984093E+001	4,7248346E-004	-8,6123123E+000	9,9294579E+001	9,8174957E+001	1,4869145E+001	-7,6609168E+000	1,1440061E+002	1,1337952E+002	1,5250766E+001	0,0000000E+000	6,5728359E-002	1,6497201E-003	6,5749057E-002	1,4377685E+000	-9,284242384231017E-008
1,1772907E+000	-1,0375772E+000	-2,5101323E+000	2,7161241E+000	1,1245802E+002	5,019807754989050E+004	1,3576161E+001	7,5359317E-006	-5,3856707E+004	-4,5997461E+004	1,000000000000000E+000	1,2926530E-005	4,7591825E-006	0	14	-1,209238613038638E-007	1,1983310E+001	5,4164743E-004	-9,8387814E+000	1,1381102E+002	1,1213714E+002	1,9447622E+001	-8,6681843E+000	1,1238323E+002	1,1109956E+002	1,6937490E+001	0,0000000E+000	-1,4064397E-001	-3,4024942E-001	3,6817169E-001	-1,1245802E+002	-4,880955983423067E-008
7,9621863E-001	2,7626987E+000	-2,0359843E+000	3,4318707E+000	3,6388538E+001	5,020074255002453E+004	1,3576237E+001	7,1125596E-006	-9,8177828E+004	-3,4554164E+004	1,000000000000000E+000	1,6331804E-005	4,7588633E-006	0	14	-4,098442840318563E-008	1,1981516E+001	5,5191282E-004	-1,0232583E+001	1,1597577E+002	1,1413114E+002	2,0602446E+001	-9,0250044E+000	1,1835912E+002	1,1689384E+002	1,8566462E+001	0,0000000E+000	2,3456959E-001	-1,7286719E-001	2,9138628E-001	-3,6388538E+001	7,993943290067821E-008
5,3938830E-001	1,2195230E+001	-7,6308858E-001	1,2219081E+001	3,5804842E+000	5,020466655022185E+004	1,3576249E+001	7,4964087E-006	-3,8667281E+005	-1,5080525E+003	1,000000000000000E+000	5,8148300E-005	4,7588114E-006	0	14	2,065164196636084E-007	1,1983444E+001	5,8379665E-004	-1,4190656E+001	1,2267699E+002	1,1893354E+002	3,0074175E+001	-1,2600139E+001	1,3436478E+002	1,3112877E+002	2,9311087E+001	0,0000000E+000	8,1679471E-002	-5,1109060E-003	8,1839219E-002	-3,5804842E+000	2,475008480667940E-007
3,6507010E-001	-2,2040756E+000	1,8588314E+001	1,8718531E+001	-9,6762169E+001	5,021045555051300E+004	1,3576083E+001	6,7036176E-006	2,3453295E+004	2,3128121E+004	1,000000000000000E+000	8,9073488E-005	4,7585727E-006	0	14	5,920385285822299E-007	1,1983253E+001	5,9735053E-004	-2,7070277E+000	1,2553145E+002	1,2539137E+002	5,9287210E+000	-1,1256066E+001	1,2560332E+002	1,2318729E+002	2,4517035E+001	0,0000000E+000	-6,2904675E-003	5,3051356E-002	5,3422995E-002	9,6762169E+001	3,855221089186215E-007
2,4724665E-001	7,2741518E+000	-5,6040277E+000	9,1825056E+000	3,7610760E+001	5,021899555094249E+004	1,3576082E+001	6,7757305E-006	-1,1486546E+005	-4,2782641E+004	1,000000000000000E+000	4,3697612E-005	4,7587896E-006	0	14	9,001074043492912E-007	1,1982509E+001	5,8691262E-004	-1,4931521E+001	1,2333233E+002	1,1916795E+002	3,1778351E+001	-1,1695404E+001	1,2912280E+002	1,2644210E+002	2,6174324E+001	0,0000000E+000	8,6270034E-002	-6,6462681E-002	1,0890274E-001	-3,7610760E+001	3,080688757670613E-007
1,6750640E-001	4,7767210E+000	-1,4312476E+000	4,9865351E+000	1,6679779E+001	5,023159355157602E+004	1,3576105E+001	7,0091078E-006	-6,6385606E+005	-5,4689723E+004	1,000000000000000E+000	2,3728764E-005	4,7585677E-006	0	14	7,789119830813308E-007	1,1982356E+001	6,6722417E-004	-1,1042790E+001	1,4021533E+002	1,3761916E+002	2,6857132E+001	-1,0123911E+001	1,4464806E+002	1,4239587E+002	2,5425884E+001	0,0000000E+000	1,9210210E-001	-5,7559501E-002	2,0054005E-001	-1,6679779E+001	-1,211954212679605E-007
1,1320493E-001	-2,3749728E+000	-6,0097556E+000	6,4620166E+000	1,1156325E+002	5,025022655251308E+004	1,3576135E+001	6,7392994E-006	-2,3393650E+005	-2,0233708E+005	1,000000000000000E+000	3,0751773E-005	4,7588510E-006	0	14	-1,273646289229065E-007	1,1983195E+001	7,1047165E-004	-1,2546772E+001	1,4929478E+002	1,4572948E+002	3,2432281E+001	-1,0443318E+001	1,4576921E+002	1,4335451E+002	2,6422525E+001	0,0000000E+000	-5,6875136E-002	-1,4391984E-001	1,5475045E-001	-1,1156325E+002	-9,062766120042373E-007
7,6773763E-002	7,2693787E+000	-1,0614336E+000	7,3464622E+000	8,3072996E+000	5,027769355389453E+004	1,3576173E+001	6,5663571E-006	-1,9530550E+006	-4,0770273E+004	1,000000000000000E+000	3,4960656E-005	4,7588424E-006	0	14	-1,875340853218202E-006	1,1984933E+001	7,8317453E-004	-9,8047285E+000	1,6457249E+002	1,6216872E+002	2,8025187E+001	-9,0420198E+000	1,7157014E+002	1,6943810E+002	2,6963753E+001	0,0000000E+000	1,3469170E-001	-1,9666919E-002	1,3611995E-001	-8,3072996E+000	-1,747976224295295E-006
5,1879965E-002	1,4427540E+001	-1,6394907E+001	2,1839113E+001	4,8652180E+001	5,031833055593818E+004	1,3575981E+001	7,8022231E-006	-1,8711625E+005	-1,0545312E+005	1,000000000000000E+000	1,0391171E-004	4,7580556E-006	0	14	-3,931093678971592E-006	1,1984055E+001	8,0010289E-004	-1,2265476E+001	1,6815753E+002	1,6431912E+002	3,5723660E+001	-6,1716924E+000	1,7978868E+002	1,7874666E+002	1,9328753E+001	0,0000000E+000	3,0249784E-002	-3,4374703E-002	4,5789406E-002	-4,8652180E+001	-2,055752825753390E-006
3,5195883E-002	1,3361719E+001	-6,1712070E+000	1,4717994E+001	2,4790195E+001	5,037822455895029E+004	1,3575815E+001	7,0907827E-006	-7,3275394E+005	-1,2882529E+005	1,000000000000000E+000	7,0039656E-005	4,7587773E-006	0	14	-4,663595732947133E-006	1,1983081E+001	8,8234816E-004	-1,7340601E+001	1,8541489E+002	1,7698775E+002	5,5263157E+001	-1,4461688E+001	1,9657808E+002	1,9034947E+002	4,9091949E+001	0,0000000E+000	6,1682947E-002	-2,8488716E-002	6,7944042E-002	-2,4790195E+001	-7,325020539755405E-007
2,3795672E-002	1,6428707E+001	-2,3699968E+001	2,8837318E+001	5,5270481E+001	5,046680456340511E+004	1,3575579E+001	6,6598773E-006	-2,8221128E+005	-1,9061636E+005	1,000000000000000E+000	1,3722733E-004	4,7586714E-006	0	14	-1,797936575927148E-006	1,1982814E+001	9,7278500E-004	-2,2104975E+001	2,0442366E+002	1,8939769E+002	7,6925583E+001	-1,4498771E+001	2,1259697E+002	2,0582640E+002	5,3225616E+001	0,0000000E+000	1,9755756E-002	-2,8499553E-002	3,4677289E-002	-5,5270481E+001	2,865659157019984E-006
1,6098291E-002	-1,7048519E+001	6,6548667E+000	1,8301346E+001	-1,5867688E+002	5,059773056998965E+004	1,3575443E+001	6,6981706E-006	1,4855969E+006	1,9643264E+005	1,000000000000000E+000	8,7090368E-005	4,7586864E-006	0	14	6,319256821540270E-006	1,1982814E+001	1,1134121E-003	-2,0618010E+001	2,3397467E+002	2,1898833E+002	8,2390877E+001	-2,3795174E+001	2,2070078E+002	2,0193980E+002	8,9045746E+001	0,0000000E+000	-5,0900329E-002	1,9868875E-002	5,4640789E-002	1,5867688E+002	8,117193397467417E-006
1,0915886E-002	1,3217852E+000	1,4152276E+001	1,4213867E+001	-8,4664207E+001	5,079080757969967E+004	1,3575396E+001	6,6295538E-006	1,0302315E+006	1,0213226E+006	1,000000000000000E+000	6,7639186E-005	4,7586759E-006	0	14	1,864466100537922E-005	1,1985868E+001	1,0408654E-003	-2,3350515E+001	2,1873006E+002	2,0081548E+002	8,6694771E+001	-2,6514782E+001	2,2589732E+002	2,0213727E+002	1,0084705E+002	0,0000000E+000	6,5423851E-003	7,0048973E-002	7,0353828E-002	8,4664207E+001	1,232540418383895E-005
7,3873415E-003	2,0782312E+001	1,4381567E-003	2,0782312E+001	-3,9649247E-003	5,107609959404741E+004	1,3575004E+001	6,6228977E-006	1,4980480E+010	7,1738190E+001	1,000000000000000E+000	9,8897464E-005	4,7587323E-006	0	14	2,938807170432149E-005	1,1987205E+001	9,2707964E-004	-2,2499329E+001	1,9481651E+002	1,7998787E+002	7,4550941E+001	-2,0371571E+001	2,1416518E+002	2,0077019E+002	7,4552383E+001	0,0000000E+000	4,8117843E-002	3,3298024E-006	4,8117843E-002	3,9649247E-003	1,074341069894227E-005
5,0018891E-003	-3,8408105E+000	-2,9051565E+001	2,9304356E+001	9,7531212E+001	5,149744161523739E+004	1,3575430E+001	6,0113407E-006	-1,0952583E+006	-1,0764435E+006	1,000000000000000E+000	1,3945774E-004	4,7589424E-006	0	14	2,925265636101034E-005	1,1988999E+001	1,0379192E-003	-2,2403761E+001	2,1809871E+002	2,0163684E+002	8,3124191E+001	-1,5289692E+001	2,0505394E+002	1,9779604E+002	5,4072624E+001	0,0000000E+000	-4,4725863E-003	-3,3830248E-002	3,4124620E-002	-9,7531212E+001	-1,354153433111506E-007