File: SAMPLE-MPT/20220309_SSB_Cell_03_Form01/20220309_(Form02C)EIS_charging_10bis16V_step_01V+(1C+EIS)50cycle_06_GCPL6_C08.mpt
EC-Lab ASCII FILE
Nb header lines : 76

Galvanostatic Cycling with Potential Limitation 6

Run on channel : 8 (SN 14384)
User :
CE vs. WE compliance from -10 V to 10 V
Electrode connection : standard
Potential control : Ewe-Ece
Ecell ctrl range : min = 0,00 V, max = 5,00 V
Safety Limits :
	Do not start on E overload
Acquisition started on : 03/09/2022 13:55:05.456
Technique started on : 03/09/2022 17:21:44.205
Loaded Setting File :  C:\DATA\x_Data_VMP3\Extern\InES\Binbin\001_Testing_Profiles\20220308_(Form02C)EIS_charging_10bis16V_step_01V+(1C+EIS)50cycle.mps
Saved on :
	File : 20220309_(Form02C)EIS_charging_10bis16V_step_01V+(1C+EIS)50cycle_06_GCPL6_C08.mpr
	Directory : C:\DATA\x_Data_VMP3\Extern\InES\Binbin\20220309_SSB_Cell_03_Form01\
	Host : 134.169.45.143
Device : VMP3 (SN 0787)
Address : 134.169.45.150
EC-Lab for windows v11.42 (software)
Internet server v11.40 (firmware)
Command interpretor v11.40 (firmware)
Electrode material :
Initial state :
Electrolyte :
Comments :
Electrode surface area : 0,000 cm²
Characteristic mass : 0,001 g
Equivalent Weight : 0,000 g/eq.
Density : 0,000 g/cm3
Volume (V) : 0,001 cm³
Record Ece
Record Power
Cycle Definition : Charge/Discharge alternance
Ns                  0                   1
Set I/C             I                   I
Is                  0,000               20,000
unit Is             mA                  µA
vs.                 <None>              <None>
N                   1,00                1,00
I sign              > 0                 > 0
t1 (h:m:s)          0:00:0,0000         20:00:0,0000
I Range             100 µA              100 µA
Bandwidth           5                   5
dE1 (mV)            0,00                0,00
dt1 (s)             0,0000              5,0000
EM (V)              0,000               1,200
tM (h:m:s)          0:00:0,0000         10:00:0,0000
Im                  0,000               10,000
unit Im             mA                  µA
dI/dt               0,000               0,000
dunit dI/dt         mA/s                mA/s
E range min (V)     0,000               0,000
E range max (V)     5,000               5,000
dq                  0,000               1,000
unit dq             mA.h                mA.h
dtq (s)             0,0000              120,0000
dQM                 0,000               0,000
unit dQM            mA.h                mA.h
dxM                 0,000               0,000
delta SoC (%)       pass                pass
tR (h:m:s)          0:00:10,0000        0:01:0,0000
dER/dt (mV/h)       0,0                 0,1
dER (mV)            0,00                0,00
dtR (s)             1,0000              120,0000
EL (V)              pass                pass
goto Ns'            0                   0
nc cycles           0                   0

Number of loops : 1
Loop 0 from point number 0 to 89

mode	ox/red	error	control changes	Ns changes	counter inc.	Ns	time/s	dq/mA.h	(Q-Qo)/mA.h	control/V/mA	Ewe/V	I Range	Q charge/discharge/mA.h	half cycle	Ece/V	P/W	Energy charge/W.h	Energy discharge/W.h	Capacitance charge/µF	Capacitance discharge/µF	<I>/mA	Q discharge/mA.h	Q charge/mA.h	Capacity/mA.h	Efficiency/%	control/V	control/mA	cycle number	 Ecell/V
3	1	0	0	0	0	0	1,239874904896997E+004	0,000000000000000E+000	0,000000000000000E+000	0,0000000E+000	1,0514146E+001	14	0,000000000000000E+000	0	1,3593764E+001	0,0000000E+000	0,000000000000000E+000	0,000000000000000E+000	0,000000000000000E+000	0,000000000000000E+000	0,000000000000000E+000	0,000000000000000E+000	0,000000000000000E+000	0,000000000000000E+000	0,0000000E+000	0,0000000E+000	0,0000000E+000	0,000000000000000E+000	-3,0796185E+000
3	1	0	0	0	0	0	1,239974904895786E+004	0,000000000000000E+000	0,000000000000000E+000	0,0000000E+000	1,4500802E+001	14	0,000000000000000E+000	0	1,3580716E+001	0,0000000E+000	0,000000000000000E+000	0,000000000000000E+000	0,000000000000000E+000	0,000000000000000E+000	0,000000000000000E+000	0,000000000000000E+000	0,000000000000000E+000	0,000000000000000E+000	0,0000000E+000	0,0000000E+000	0,0000000E+000	0,000000000000000E+000	9,2008591E-001
3	1	0	0	0	0	0	1,240074904894576E+004	0,000000000000000E+000	0,000000000000000E+000	0,0000000E+000	1,4499158E+001	14	0,000000000000000E+000	0	1,3580356E+001	0,0000000E+000	0,000000000000000E+000	0,000000000000000E+000	0,000000000000000E+000	0,000000000000000E+000	0,000000000000000E+000	0,000000000000000E+000	0,000000000000000E+000	0,000000000000000E+000	0,0000000E+000	0,0000000E+000	0,0000000E+000	0,000000000000000E+000	9,1880226E-001
3	1	0	0	0	0	0	1,240174904893365E+004	0,000000000000000E+000	0,000000000000000E+000	0,0000000E+000	1,4498797E+001	14	0,000000000000000E+000	0	1,3580596E+001	0,0000000E+000	0,000000000000000E+000	0,000000000000000E+000	0,000000000000000E+000	0,000000000000000E+000	0,000000000000000E+000	0,000000000000000E+000	0,000000000000000E+000	0,000000000000000E+000	0,0000000E+000	0,0000000E+000	0,0000000E+000	0,000000000000000E+000	9,1820145E-001
3	1	0	0	0	0	0	1,240274904892154E+004	0,000000000000000E+000	0,000000000000000E+000	0,0000000E+000	1,4498035E+001	14	0,000000000000000E+000	0	1,3581117E+001	0,0000000E+000	0,000000000000000E+000	0,000000000000000E+000	0,000000000000000E+000	0,000000000000000E+000	0,000000000000000E+000	0,000000000000000E+000	0,000000000000000E+000	0,000000000000000E+000	0,0000000E+000	0,0000000E+000	0,0000000E+000	0,000000000000000E+000	9,1691875E-001
3	1	0	0	0	0	0	1,240374904890943E+004	0,000000000000000E+000	0,000000000000000E+000	0,0000000E+000	1,4497273E+001	14	0,000000000000000E+000	0	1,3580876E+001	0,0000000E+000	0,000000000000000E+000	0,000000000000000E+000	0,000000000000000E+000	0,000000000000000E+000	0,000000000000000E+000	0,000000000000000E+000	0,000000000000000E+000	0,000000000000000E+000	0,0000000E+000	0,0000000E+000	0,0000000E+000	0,000000000000000E+000	9,1639709E-001
3	1	0	0	0	0	0	1,240474904889733E+004	0,000000000000000E+000	0,000000000000000E+000	0,0000000E+000	1,4497073E+001	14	0,000000000000000E+000	0	1,3581197E+001	0,0000000E+000	0,000000000000000E+000	0,000000000000000E+000	0,000000000000000E+000	0,000000000000000E+000	0,000000000000000E+000	0,000000000000000E+000	0,000000000000000E+000	0,000000000000000E+000	0,0000000E+000	0,0000000E+000	0,0000000E+000	0,000000000000000E+000	9,1587639E-001
3	1	0	0	0	0	0	1,240574904888522E+004	0,000000000000000E+000	0,000000000000000E+000	0,0000000E+000	1,4496872E+001	14	0,000000000000000E+000	0	1,3581397E+001	0,0000000E+000	0,000000000000000E+000	0,000000000000000E+000	0,000000000000000E+000	0,000000000000000E+000	0,000000000000000E+000	0,000000000000000E+000	0,000000000000000E+000	0,000000000000000E+000	0,0000000E+000	0,0000000E+000	0,0000000E+000	0,000000000000000E+000	9,1547489E-001
3	1	0	0	0	0	0	1,240674904887311E+004	0,000000000000000E+000	0,000000000000000E+000	0,0000000E+000	1,4496872E+001	14	0,000000000000000E+000	0	1,3581598E+001	0,0000000E+000	0,000000000000000E+000	0,000000000000000E+000	0,000000000000000E+000	0,000000000000000E+000	0,000000000000000E+000	0,000000000000000E+000	0,000000000000000E+000	0,000000000000000E+000	0,0000000E+000	0,0000000E+000	0,0000000E+000	0,000000000000000E+000	9,1527367E-001
3	1	0	0	0	0	0	1,240774904886101E+004	0,000000000000000E+000	0,000000000000000E+000	0,0000000E+000	1,4495950E+001	14	0,000000000000000E+000	0	1,3581438E+001	0,0000000E+000	0,000000000000000E+000	0,000000000000000E+000	0,000000000000000E+000	0,000000000000000E+000	0,000000000000000E+000	0,000000000000000E+000	0,000000000000000E+000	0,000000000000000E+000	0,0000000E+000	0,0000000E+000	0,0000000E+000	0,000000000000000E+000	9,1451168E-001
3	1	0	1	0	0	0	1,240874884884890E+004	0,000000000000000E+000	0,000000000000000E+000	2,0000001E-002	1,3581707E+001	13	0,000000000000000E+000	0	1,2668656E+001	0,0000000E+000	0,000000000000000E+000	0,000000000000000E+000	0,000000000000000E+000	0,000000000000000E+000	0,000000000000000E+000	0,000000000000000E+000	0,000000000000000E+000	0,000000000000000E+000	0,0000000E+000	0,0000000E+000	0,0000000E+000	0,000000000000000E+000	9,1305065E-001
1	1	0	1	1	0	1	1,240874924884889E+004	2,220125868916512E-009	2,220125868916512E-009	2,0000001E-002	1,0514146E+001	13	2,220125868916512E-009	0	1,0506271E+001	2,1008454E-004	2,334272719366659E-011	0,000000000000000E+000	0,000000000000000E+000	0,000000000000000E+000	1,998113332501449E-002	0,000000000000000E+000	2,220125868916512E-009	2,220125868916512E-009	0,0000000E+000	0,0000000E+000	2,0000001E-002	0,000000000000000E+000	7,8744888E-003
1	1	0	1	0	0	1	1,241374924878836E+004	2,785982017984821E-005	2,786204030571712E-005	2,0000001E-002	1,3581547E+001	13	2,786204030571712E-005	0	1,2493662E+001	2,7243322E-004	3,784027938782303E-007	0,000000000000000E+000	3,269978307823600E+001	0,000000000000000E+000	2,005907077234976E-002	0,000000000000000E+000	2,786204030571712E-005	2,786204030571712E-005	0,0000000E+000	0,0000000E+000	2,0000001E-002	0,000000000000000E+000	1,0878849E+000
1	1	0	1	0	0	1	1,241874924872782E+004	2,785971515108314E-005	5,572175545680026E-005	2,0000001E-002	1,3580585E+001	13	5,572175545680026E-005	0	1,2479469E+001	2,7241287E-004	7,567540103595254E-007	0,000000000000000E+000	6,541735899847149E+001	0,000000000000000E+000	2,005899515163799E-002	0,000000000000000E+000	5,572175545680026E-005	5,572175545680026E-005	0,0000000E+000	0,0000000E+000	2,0000001E-002	0,000000000000000E+000	1,1011152E+000
1	1	0	1	0	0	1	1,242374924866729E+004	2,785996692575928E-005	8,358172238255954E-005	2,0000001E-002	1,3579622E+001	13	8,358172238255954E-005	0	1,2469046E+001	2,7239602E-004	1,135081837629164E-006	0,000000000000000E+000	9,815577078179905E+001	0,000000000000000E+000	2,005917642940701E-002	0,000000000000000E+000	8,358172238255954E-005	8,358172238255954E-005	0,0000000E+000	0,0000000E+000	2,0000001E-002	0,000000000000000E+000	1,1105766E+000
1	1	0	1	0	0	1	1,242874924860675E+004	2,785986756885217E-005	1,114415899514117E-004	2,0000001E-002	1,3579702E+001	13	1,114415899514117E-004	0	1,2462070E+001	2,7239669E-004	1,513410547485708E-006	0,000000000000000E+000	1,308701113153088E+002	0,000000000000000E+000	2,005910489243303E-002	0,000000000000000E+000	1,114415899514117E-004	1,114415899514117E-004	0,0000000E+000	0,0000000E+000	2,0000001E-002	0,000000000000000E+000	1,1176319E+000
1	1	0	1	0	0	1	1,243374924854621E+004	2,785976566529522E-005	1,393013556167069E-004	2,0000001E-002	1,3580263E+001	13	1,393013556167069E-004	0	1,2456457E+001	2,7240693E-004	1,891753496178347E-006	0,000000000000000E+000	1,635569788534756E+002	0,000000000000000E+000	2,005903152187113E-002	0,000000000000000E+000	1,393013556167069E-004	1,393013556167069E-004	0,0000000E+000	0,0000000E+000	2,0000001E-002	0,000000000000000E+000	1,1238060E+000
1	1	0	1	0	0	1	1,243874924848568E+004	2,785990185207791E-005	1,671612574687849E-004	2,0000001E-002	1,3581025E+001	13	1,671612574687849E-004	0	1,2452288E+001	2,7242352E-004	2,270119523172341E-006	0,000000000000000E+000	1,962191770283616E+002	0,000000000000000E+000	2,005912957635586E-002	0,000000000000000E+000	1,671612574687849E-004	1,671612574687849E-004	0,0000000E+000	0,0000000E+000	2,0000001E-002	0,000000000000000E+000	1,1287374E+000
1	1	0	1	0	0	1	1,244374924842514E+004	2,785977915964193E-005	1,950210366284268E-004	2,0000001E-002	1,3581867E+001	13	1,950210366284268E-004	0	1,2448520E+001	2,7243924E-004	2,648507344441892E-006	0,000000000000000E+000	2,288590285420363E+002	0,000000000000000E+000	2,005904123780088E-002	0,000000000000000E+000	1,950210366284268E-004	1,950210366284268E-004	0,0000000E+000	0,0000000E+000	2,0000001E-002	0,000000000000000E+000	1,1333475E+000
1	1	0	1	0	0	1	1,244874924836461E+004	2,785992580279708E-005	2,228809624312239E-004	2,0000001E-002	1,3581747E+001	13	2,228809624312239E-004	0	1,2444270E+001	2,7243825E-004	3,026893809668046E-006	0,000000000000000E+000	2,615631600768320E+002	0,000000000000000E+000	2,005914682087387E-002	0,000000000000000E+000	2,228809624312239E-004	2,228809624312239E-004	0,0000000E+000	0,0000000E+000	2,0000001E-002	0,000000000000000E+000	1,1374769E+000
1	1	0	1	0	0	1	1,245374924830407E+004	2,785992083398418E-005	2,507408832652080E-004	2,0000001E-002	1,3580103E+001	13	2,507408832652080E-004	0	1,2438858E+001	2,7240525E-004	3,405234401951431E-006	0,000000000000000E+000	2,944161184658368E+002	0,000000000000000E+000	2,005914324332854E-002	0,000000000000000E+000	2,507408832652080E-004	2,507408832652080E-004	0,0000000E+000	0,0000000E+000	2,0000001E-002	0,000000000000000E+000	1,1412449E+000
1	1	0	1	0	0	1	1,245874924824353E+004	2,785965455799467E-005	2,786005378232027E-004	2,0000001E-002	1,3579422E+001	13	2,786005378232027E-004	0	1,2434769E+001	2,7238898E-004	3,783552407887044E-006	0,000000000000000E+000	3,272011683167871E+002	0,000000000000000E+000	2,005895152461377E-002	0,000000000000000E+000	2,786005378232027E-004	2,786005378232027E-004	0,0000000E+000	0,0000000E+000	2,0000001E-002	0,000000000000000E+000	1,1446533E+000
1	1	0	1	0	0	1	1,246374924818300E+004	2,785965539866852E-005	3,064601932218712E-004	2,0000001E-002	1,3579903E+001	13	3,064601932218712E-004	0	1,2432122E+001	2,7239861E-004	4,161883816033582E-006	0,000000000000000E+000	3,598643885887644E+002	0,000000000000000E+000	2,005895212989894E-002	0,000000000000000E+000	3,064601932218712E-004	3,064601932218712E-004	0,0000000E+000	0,0000000E+000	2,0000001E-002	0,000000000000000E+000	1,1477804E+000
1	1	0	1	0	0	1	1,246874924812246E+004	2,785959039152496E-005	3,343197836133962E-004	2,0000001E-002	1,3579943E+001	13	3,343197836133962E-004	0	1,2429196E+001	2,7239879E-004	4,540215457286424E-006	0,000000000000000E+000	3,925737023897010E+002	0,000000000000000E+000	2,005890532475502E-002	0,000000000000000E+000	3,343197836133962E-004	3,343197836133962E-004	0,0000000E+000	0,0000000E+000	2,0000001E-002	0,000000000000000E+000	1,1507463E+000
1	1	0	1	0	0	1	1,247374924806193E+004	2,785947671843072E-005	3,621792603318269E-004	2,0000001E-002	1,3579662E+001	13	3,621792603318269E-004	0	1,2426270E+001	2,7239206E-004	4,918537743618139E-006	0,000000000000000E+000	4,253264822296915E+002	0,000000000000000E+000	2,005882348012617E-002	0,000000000000000E+000	3,621792603318269E-004	3,621792603318269E-004	0,0000000E+000	0,0000000E+000	2,0000001E-002	0,000000000000000E+000	1,1533928E+000
1	1	0	1	0	0	1	1,247874924800139E+004	2,785946974686037E-005	3,900387300786873E-004	2,0000001E-002	1,3580023E+001	13	3,900387300786873E-004	0	1,2423663E+001	2,7239922E-004	5,296869978307652E-006	0,000000000000000E+000	4,579894908560745E+002	0,000000000000000E+000	2,005881846059546E-002	0,000000000000000E+000	3,900387300786873E-004	3,900387300786873E-004	0,0000000E+000	0,0000000E+000	2,0000001E-002	0,000000000000000E+000	1,1563597E+000
1	1	0	1	0	0	1	1,248374924794085E+004	2,785939930524263E-005	4,178981293839299E-004	2,0000001E-002	1,3580023E+001	13	4,178981293839299E-004	0	1,2421338E+001	2,7239852E-004	5,675201256398390E-006	0,000000000000000E+000	4,907024270836897E+002	0,000000000000000E+000	2,005876774263008E-002	0,000000000000000E+000	4,178981293839299E-004	4,178981293839299E-004	0,0000000E+000	0,0000000E+000	2,0000001E-002	0,000000000000000E+000	1,1586847E+000
1	1	0	1	0	0	1	1,248874924788032E+004	2,785920746251941E-005	4,457573368464493E-004	2,0000001E-002	1,3580183E+001	13	4,457573368464493E-004	0	1,2419093E+001	2,7239986E-004	6,053534392787156E-006	0,000000000000000E+000	5,233877867303920E+002	0,000000000000000E+000	2,005862961586768E-002	0,000000000000000E+000	4,457573368464493E-004	4,457573368464493E-004	0,0000000E+000	0,0000000E+000	2,0000001E-002	0,000000000000000E+000	1,1610899E+000
1	1	0	1	0	0	1	1,249374924781978E+004	2,785934594635748E-005	4,736166827928068E-004	2,0000001E-002	1,3580865E+001	13	4,736166827928068E-004	0	1,2417249E+001	2,7241488E-004	6,431888406462821E-006	0,000000000000000E+000	5,559753036967954E+002	0,000000000000000E+000	2,005872932423231E-002	0,000000000000000E+000	4,736166827928068E-004	4,736166827928068E-004	0,0000000E+000	0,0000000E+000	2,0000001E-002	0,000000000000000E+000	1,1636162E+000
1	1	0	1	0	0	1	1,249874924775925E+004	2,785958287968404E-005	5,014762656724908E-004	2,0000001E-002	1,3581507E+001	13	5,014762656724908E-004	0	1,2416246E+001	2,7243010E-004	6,810263518813893E-006	0,000000000000000E+000	5,885562958615876E+002	0,000000000000000E+000	2,005889991622949E-002	0,000000000000000E+000	5,014762656724908E-004	5,014762656724908E-004	0,0000000E+000	0,0000000E+000	2,0000001E-002	0,000000000000000E+000	1,1652603E+000
1	1	0	1	0	0	1	1,250374924769871E+004	2,785909165690343E-005	5,293353573293943E-004	2,0000001E-002	1,3581707E+001	13	5,293353573293942E-004	0	1,2414403E+001	2,7242929E-004	7,188637539004504E-006	0,000000000000000E+000	6,212124855721502E+002	0,000000000000000E+000	2,005854623582317E-002	0,000000000000000E+000	5,293353573293942E-004	5,293353573293942E-004	0,0000000E+000	0,0000000E+000	2,0000001E-002	0,000000000000000E+000	1,1673040E+000
1	1	0	1	0	0	1	1,250874924763817E+004	2,785911874949104E-005	5,571944760788853E-004	2,0000001E-002	1,3579702E+001	13	5,571944760788852E-004	0	1,2410434E+001	2,7238933E-004	7,566956080116989E-006	0,000000000000000E+000	6,543347339221549E+002	0,000000000000000E+000	2,005856574248649E-002	0,000000000000000E+000	5,571944760788852E-004	5,571944760788852E-004	0,0000000E+000	0,0000000E+000	2,0000001E-002	0,000000000000000E+000	1,1692686E+000
1	1	0	1	0	0	1	1,251374924757764E+004	2,785922417427517E-005	5,850537002531605E-004	2,0000001E-002	1,3579422E+001	13	5,850537002531603E-004	0	1,2407948E+001	2,7238476E-004	7,945268241690454E-006	0,000000000000000E+000	6,871137283028984E+002	0,000000000000000E+000	2,005864164833198E-002	0,000000000000000E+000	5,850537002531603E-004	5,850537002531603E-004	0,0000000E+000	0,0000000E+000	2,0000001E-002	0,000000000000000E+000	1,1714745E+000
1	1	0	1	0	0	1	1,251874924751710E+004	2,785941448611104E-005	6,129131147392716E-004	2,0000001E-002	1,3579742E+001	13	6,129131147392713E-004	0	1,2406384E+001	2,7239305E-004	8,323591914708159E-006	0,000000000000000E+000	7,197578530367593E+002	0,000000000000000E+000	2,005877867285546E-002	0,000000000000000E+000	6,129131147392713E-004	6,129131147392713E-004	0,0000000E+000	0,0000000E+000	2,0000001E-002	0,000000000000000E+000	1,1733580E+000
1	1	0	1	0	0	1	1,252374924745657E+004	2,785954862388058E-005	6,407726633631521E-004	2,0000001E-002	1,3579622E+001	13	6,407726633631519E-004	0	1,2404700E+001	2,7239195E-004	8,701914061596291E-006	0,000000000000000E+000	7,525034526141857E+002	0,000000000000000E+000	2,005887525205070E-002	0,000000000000000E+000	6,407726633631519E-004	6,407726633631519E-004	0,0000000E+000	0,0000000E+000	2,0000001E-002	0,000000000000000E+000	1,1749220E+000
1	1	0	1	0	0	1	1,252874924739603E+004	2,785962219174124E-005	6,686322855548933E-004	2,0000001E-002	1,3580263E+001	13	6,686322855548932E-004	0	1,2403818E+001	2,7240551E-004	9,080255061880313E-006	0,000000000000000E+000	7,850568008121870E+002	0,000000000000000E+000	2,005892822091102E-002	0,000000000000000E+000	6,686322855548932E-004	6,686322855548932E-004	0,0000000E+000	0,0000000E+000	2,0000001E-002	0,000000000000000E+000	1,1764450E+000
1	1	0	1	0	0	1	1,253374924733549E+004	2,785976275687830E-005	6,964920483117716E-004	2,0000001E-002	1,3581387E+001	13	6,964920483117714E-004	0	1,2403337E+001	2,7242943E-004	9,458629269523043E-006	0,000000000000000E+000	8,174680786018529E+002	0,000000000000000E+000	2,005902942781093E-002	0,000000000000000E+000	6,964920483117714E-004	6,964920483117714E-004	0,0000000E+000	0,0000000E+000	2,0000001E-002	0,000000000000000E+000	1,1780491E+000
1	1	0	1	0	0	1	1,253874924727496E+004	2,786041527489821E-005	7,243524635866699E-004	2,0000001E-002	1,3581587E+001	13	7,243524635866696E-004	0	1,2402255E+001	2,7243985E-004	9,837017918915367E-006	0,000000000000000E+000	8,501121554661374E+002	0,000000000000000E+000	2,005949924079095E-002	0,000000000000000E+000	7,243524635866696E-004	7,243524635866696E-004	0,0000000E+000	0,0000000E+000	2,0000001E-002	0,000000000000000E+000	1,1793318E+000
1	1	0	1	0	0	1	1,254374924721442E+004	2,786065989649958E-005	7,522131234831694E-004	2,0000001E-002	1,3580464E+001	13	7,522131234831693E-004	0	1,2399408E+001	2,7241971E-004	1,021537861777218E-005	0,000000000000000E+000	8,831330580872748E+002	0,000000000000000E+000	2,005967536834607E-002	0,000000000000000E+000	7,522131234831693E-004	7,522131234831693E-004	0,0000000E+000	0,0000000E+000	2,0000001E-002	0,000000000000000E+000	1,1810560E+000
1	1	0	1	0	0	1	1,254874924715389E+004	2,786060254669024E-005	7,800737260298597E-004	2,0000001E-002	1,3579823E+001	13	7,800737260298595E-004	0	1,2397364E+001	2,7240627E-004	1,059372065622159E-005	0,000000000000000E+000	9,160344349579806E+002	0,000000000000000E+000	2,005963407648284E-002	0,000000000000000E+000	7,800737260298595E-004	7,800737260298595E-004	0,0000000E+000	0,0000000E+000	2,0000001E-002	0,000000000000000E+000	1,1824589E+000
1	1	0	1	0	0	1	1,255374924709335E+004	2,786062548630353E-005	8,079343515161631E-004	2,0000001E-002	1,3580424E+001	13	8,079343515161631E-004	0	1,2396563E+001	2,7241858E-004	1,097207977183352E-005	0,000000000000000E+000	9,485647522356078E+002	0,000000000000000E+000	2,005965059300462E-002	0,000000000000000E+000	8,079343515161631E-004	8,079343515161631E-004	0,0000000E+000	0,0000000E+000	2,0000001E-002	0,000000000000000E+000	1,1838617E+000
1	1	0	1	0	0	1	1,255874924703281E+004	2,786055639800098E-005	8,357949079141642E-004	2,0000001E-002	1,3581266E+001	13	8,357949079141642E-004	0	1,2396001E+001	2,7243479E-004	1,135046141041610E-005	0,000000000000000E+000	9,810053492899679E+002	0,000000000000000E+000	2,005960084942618E-002	0,000000000000000E+000	8,357949079141642E-004	8,357949079141642E-004	0,0000000E+000	0,0000000E+000	2,0000001E-002	0,000000000000000E+000	1,1852655E+000
1	1	0	1	0	0	1	1,256374924697228E+004	2,786043152647714E-005	8,636553394406414E-004	2,0000001E-002	1,3582108E+001	13	8,636553394406412E-004	0	1,2395359E+001	2,7245044E-004	1,172886478762943E-005	0,000000000000000E+000	1,013428306250628E+003	0,000000000000000E+000	2,005951094192792E-002	0,000000000000000E+000	8,636553394406412E-004	8,636553394406412E-004	0,0000000E+000	0,0000000E+000	2,0000001E-002	0,000000000000000E+000	1,1867485E+000
1	1	0	1	0	0	1	1,256874924691174E+004	2,786010827258643E-005	8,915154477132278E-004	2,0000001E-002	1,3581185E+001	13	8,915154477132277E-004	0	1,2393476E+001	2,7242876E-004	1,210723808169645E-005	0,000000000000000E+000	1,046434394632889E+003	0,000000000000000E+000	2,005927819912379E-002	0,000000000000000E+000	8,915154477132277E-004	8,915154477132277E-004	0,0000000E+000	0,0000000E+000	2,0000001E-002	0,000000000000000E+000	1,1877098E+000
1	1	0	1	0	0	1	1,257374924685121E+004	2,786020152001745E-005	9,193756492332452E-004	2,0000001E-002	1,3579742E+001	13	9,193756492332451E-004	0	1,2390829E+001	2,7240074E-004	1,248557244243189E-005	0,000000000000000E+000	1,079643798628606E+003	0,000000000000000E+000	2,005934533727494E-002	0,000000000000000E+000	9,193756492332451E-004	9,193756492332451E-004	0,0000000E+000	0,0000000E+000	2,0000001E-002	0,000000000000000E+000	1,1889133E+000
1	1	0	1	0	0	1	1,257874924679067E+004	2,786105111686306E-005	9,472367003501083E-004	2,0000001E-002	1,3579141E+001	13	9,472367003501082E-004	0	1,2388824E+001	2,7239698E-004	1,286390157457090E-005	0,000000000000000E+000	1,112580063071034E+003	0,000000000000000E+000	2,005995704701118E-002	0,000000000000000E+000	9,472367003501082E-004	9,472367003501082E-004	0,0000000E+000	0,0000000E+000	2,0000001E-002	0,000000000000000E+000	1,1903162E+000
1	1	0	1	0	0	1	1,258374924673013E+004	2,786117963906791E-005	9,750978799891761E-004	2,0000001E-002	1,3579502E+001	13	9,750978799891761E-004	0	1,2388464E+001	2,7240548E-004	1,324224252214727E-005	0,000000000000000E+000	1,145169460391060E+003	0,000000000000000E+000	2,006004958299980E-002	0,000000000000000E+000	9,750978799891761E-004	9,750978799891761E-004	0,0000000E+000	0,0000000E+000	2,0000001E-002	0,000000000000000E+000	1,1910381E+000
1	1	0	1	0	0	1	1,258874924666960E+004	2,786008640575326E-005	1,002957966394929E-003	2,0000001E-002	1,3579943E+001	13	1,002957966394929E-003	0	1,2387822E+001	2,7240365E-004	1,362058089924491E-005	0,000000000000000E+000	1,177719481489655E+003	0,000000000000000E+000	2,005926245500372E-002	0,000000000000000E+000	1,002957966394929E-003	1,002957966394929E-003	0,0000000E+000	0,0000000E+000	2,0000001E-002	0,000000000000000E+000	1,1921206E+000
1	1	0	1	0	0	1	1,259374924660906E+004	2,786031668250345E-005	1,030818283077433E-003	2,0000001E-002	1,3579983E+001	13	1,030818283077433E-003	0	1,2386700E+001	2,7240670E-004	1,399892351941370E-005	0,000000000000000E+000	1,210418535732285E+003	0,000000000000000E+000	2,005942825426587E-002	0,000000000000000E+000	1,030818283077433E-003	1,030818283077433E-003	0,0000000E+000	0,0000000E+000	2,0000001E-002	0,000000000000000E+000	1,1932831E+000
1	1	0	1	0	0	1	1,259874924654853E+004	2,786073003999061E-005	1,058679013117423E-003	2,0000001E-002	1,3581185E+001	13	1,058679013117423E-003	0	1,2387181E+001	2,7243485E-004	1,437730525781908E-005	0,000000000000000E+000	1,242646030468372E+003	0,000000000000000E+000	2,005972587166022E-002	0,000000000000000E+000	1,058679013117423E-003	1,058679013117423E-003	0,0000000E+000	0,0000000E+000	2,0000001E-002	0,000000000000000E+000	1,1940041E+000
1	1	0	1	0	0	1	1,260374924648799E+004	2,786087532072431E-005	1,086539888438148E-003	2,0000001E-002	1,3581306E+001	13	1,086539888438148E-003	0	1,2385577E+001	2,7243869E-004	1,475569234372458E-005	0,000000000000000E+000	1,275297938502300E+003	0,000000000000000E+000	2,005983047378975E-002	0,000000000000000E+000	1,086539888438148E-003	1,086539888438148E-003	0,0000000E+000	0,0000000E+000	2,0000001E-002	0,000000000000000E+000	1,1957293E+000
1	1	0	1	0	0	1	1,260874924642745E+004	2,786041755653504E-005	1,114400305994683E-003	2,0000001E-002	1,3579582E+001	13	1,114400305994683E-003	0	1,2383292E+001	2,7239966E-004	1,513402517445982E-005	0,000000000000000E+000	1,308734100539753E+003	0,000000000000000E+000	2,005950088356949E-002	0,000000000000000E+000	1,114400305994683E-003	1,114400305994683E-003	0,0000000E+000	0,0000000E+000	2,0000001E-002	0,000000000000000E+000	1,1962900E+000
1	1	0	1	0	0	1	1,261374924636692E+004	2,785957631116940E-005	1,142259882305852E-003	2,0000001E-002	1,3580945E+001	13	1,142259882305852E-003	0	1,2383693E+001	2,7241875E-004	1,551238454848171E-005	0,000000000000000E+000	1,340855842409060E+003	0,000000000000000E+000	2,005889518689889E-002	0,000000000000000E+000	1,142259882305852E-003	1,142259882305852E-003	0,0000000E+000	0,0000000E+000	2,0000001E-002	0,000000000000000E+000	1,1972523E+000
1	1	0	1	0	0	1	1,261874924630638E+004	2,785966477594856E-005	1,170119547081801E-003	2,0000001E-002	1,3581827E+001	13	1,170119547081801E-003	0	1,2383653E+001	2,7243732E-004	1,589076970030716E-005	0,000000000000000E+000	1,373164269784517E+003	0,000000000000000E+000	2,005895888154066E-002	0,000000000000000E+000	1,170119547081801E-003	1,170119547081801E-003	0,0000000E+000	0,0000000E+000	2,0000001E-002	0,000000000000000E+000	1,1981745E+000
1	1	0	1	0	0	1	1,262374924624585E+004	2,785968615942531E-005	1,197979233241226E-003	2,0000001E-002	1,3580745E+001	13	1,197979233241226E-003	0	1,2381608E+001	2,7241581E-004	1,626912498666808E-005	0,000000000000000E+000	1,406354528667321E+003	0,000000000000000E+000	2,005897427764411E-002	0,000000000000000E+000	1,197979233241226E-003	1,197979233241226E-003	0,0000000E+000	0,0000000E+000	2,0000001E-002	0,000000000000000E+000	1,1991367E+000
1	1	0	1	0	0	1	1,262743324620125E+004	2,052707055593944E-005	1,218506303797166E-003	2,0000001E-002	1,3582429E+001	13	1,218506303797166E-003	0	1,2382090E+001	2,7245030E-004	1,654793246368018E-005	0,000000000000000E+000	1,429666878116717E+003	0,000000000000000E+000	2,005902684470113E-002	0,000000000000000E+000	1,218506303797166E-003	1,218506303797166E-003	0,0000000E+000	0,0000000E+000	2,0000001E-002	0,000000000000000E+000	1,2003393E+000
1	1	0	1	0	0	1	1,262743344620125E+004	1,114166548682584E-009	1,218507417963714E-003	2,0000001E-002	1,3582229E+001	13	1,218507417963714E-003	0	1,2382370E+001	2,7239157E-004	1,654794759654501E-005	0,000000000000000E+000	1,429761508118568E+003	0,000000000000000E+000	2,005499838291838E-002	0,000000000000000E+000	1,218507417963714E-003	1,218507417963714E-003	0,0000000E+000	0,0000000E+000	2,0000001E-002	0,000000000000000E+000	1,1998587E+000
2	1	0	0	0	0	1	1,262743464620123E+004	6,629175299571620E-009	1,218514047139014E-003	1,1999834E+000	1,2491664E+001	13	1,218514047139014E-003	0	1,2388099E+001	2,4842829E-004	1,654803040597500E-005	0,000000000000000E+000	2,218260662378854E+003	0,000000000000000E+000	1,988752615994803E-002	0,000000000000000E+000	1,218514047139014E-003	1,218514047139014E-003	0,0000000E+000	1,1999834E+000	0,0000000E+000	0,000000000000000E+000	1,0356522E-001
2	1	0	0	0	0	1	1,274743464474837E+004	6,267826439969034E-004	1,845296691135917E-003	1,1999834E+000	1,3580905E+001	13	1,845296691135917E-003	0	1,2384094E+001	2,5536827E-004	2,506030592507079E-005	0,000000000000000E+000	2,166152557439937E+003	0,000000000000000E+000	1,880347954756447E-002	0,000000000000000E+000	1,845296691135917E-003	1,845296691135917E-003	0,0000000E+000	1,1999834E+000	0,0000000E+000	0,000000000000000E+000	1,1968107E+000
2	1	0	0	0	0	1	1,286743464329551E+004	5,901615525215037E-004	2,435458243657421E-003	1,1999834E+000	1,3580143E+001	13	2,435458243657421E-003	0	1,2383452E+001	2,4043434E-004	3,307478418657433E-005	0,000000000000000E+000	2,859640542171750E+003	0,000000000000000E+000	1,770484679000112E-002	0,000000000000000E+000	2,435458243657421E-003	2,435458243657421E-003	0,0000000E+000	1,1999834E+000	0,0000000E+000	0,000000000000000E+000	1,1966906E+000
2	1	0	0	0	0	1	1,298743464184264E+004	5,669430568532812E-004	3,002401300510702E-003	1,1999834E+000	1,3579983E+001	13	3,002401300510702E-003	0	1,2383573E+001	2,3097231E-004	4,077386112316499E-005	0,000000000000000E+000	3,525511960260684E+003	0,000000000000000E+000	1,700829191152112E-002	0,000000000000000E+000	3,002401300510702E-003	3,002401300510702E-003	0,0000000E+000	1,1999834E+000	0,0000000E+000	0,000000000000000E+000	1,1964102E+000
2	1	0	0	0	0	1	1,310743464038978E+004	5,494938083440065E-004	3,551895108854708E-003	1,1999834E+000	1,3582389E+001	13	3,551895108854709E-003	0	1,2385697E+001	2,2390315E-004	4,823729971407432E-005	0,000000000000000E+000	4,167473788896842E+003	0,000000000000000E+000	1,648481444990503E-002	0,000000000000000E+000	3,551895108854709E-003	3,551895108854709E-003	0,0000000E+000	1,1999834E+000	0,0000000E+000	0,000000000000000E+000	1,1966915E+000
2	1	0	0	0	0	1	1,322743463893692E+004	5,352588830807557E-004	4,087153991935464E-003	1,1999834E+000	1,3580825E+001	13	4,087153991935465E-003	0	1,2383974E+001	2,1807772E-004	5,550655685566572E-005	0,000000000000000E+000	4,797944084420922E+003	0,000000000000000E+000	1,605776668683716E-002	0,000000000000000E+000	4,087153991935465E-003	4,087153991935465E-003	0,0000000E+000	1,1999834E+000	0,0000000E+000	0,000000000000000E+000	1,1968508E+000
2	1	0	0	0	0	1	1,334743463748405E+004	5,227168895793664E-004	4,609870881514831E-003	1,1999834E+000	1,3579622E+001	13	4,609870881514831E-003	0	1,2382771E+001	2,1294894E-004	6,260485476961113E-005	0,000000000000000E+000	5,413688742959871E+003	0,000000000000000E+000	1,568150687724003E-002	0,000000000000000E+000	4,609870881514831E-003	4,609870881514831E-003	0,0000000E+000	1,1999834E+000	0,0000000E+000	0,000000000000000E+000	1,1968508E+000
2	1	0	0	0	0	1	1,346743463603119E+004	5,114338103058334E-004	5,121304691820664E-003	1,1999834E+000	1,3579582E+001	13	5,121304691820664E-003	0	1,2382852E+001	2,0835172E-004	6,954991224386028E-005	0,000000000000000E+000	6,014379261550482E+003	0,000000000000000E+000	1,534301449493585E-002	0,000000000000000E+000	5,121304691820664E-003	5,121304691820664E-003	0,0000000E+000	1,1999834E+000	0,0000000E+000	0,000000000000000E+000	1,1967306E+000
2	1	0	0	0	0	1	1,358743463457833E+004	5,008257891256362E-004	5,622130480946301E-003	1,1999834E+000	1,3580143E+001	13	5,622130480946301E-003	0	1,2383533E+001	2,0403857E-004	7,635119806568026E-005	0,000000000000000E+000	6,601333567743598E+003	0,000000000000000E+000	1,502477385567693E-002	0,000000000000000E+000	5,622130480946301E-003	5,622130480946301E-003	0,0000000E+000	1,1999834E+000	0,0000000E+000	0,000000000000000E+000	1,1966105E+000
2	1	0	0	0	0	1	1,370743463312546E+004	4,903736598782965E-004	6,112504140824597E-003	1,1999834E+000	1,3580344E+001	13	6,112504140824597E-003	0	1,2383613E+001	1,9978329E-004	8,301064115350710E-005	0,000000000000000E+000	7,176644300963831E+003	0,000000000000000E+000	1,471120997446036E-002	0,000000000000000E+000	6,112504140824597E-003	6,112504140824597E-003	0,0000000E+000	1,1999834E+000	0,0000000E+000	0,000000000000000E+000	1,1967316E+000
2	1	0	0	0	0	1	1,382743463167260E+004	4,801663363030077E-004	6,592670477127605E-003	1,1999834E+000	1,3578740E+001	13	6,592670477127605E-003	0	1,2381889E+001	1,9560162E-004	8,953069504850651E-005	0,000000000000000E+000	7,744455427361287E+003	0,000000000000000E+000	1,440499026349423E-002	0,000000000000000E+000	6,592670477127605E-003	6,592670477127605E-003	0,0000000E+000	1,1999834E+000	0,0000000E+000	0,000000000000000E+000	1,1968508E+000
2	1	0	0	0	0	1	1,394743463021974E+004	4,705593441133387E-004	7,063229821240943E-003	1,1999834E+000	1,3579662E+001	13	7,063229821240944E-003	0	1,2382852E+001	1,9170111E-004	9,592073204449709E-005	0,000000000000000E+000	8,294728666395335E+003	0,000000000000000E+000	1,411678049431475E-002	0,000000000000000E+000	7,063229821240944E-003	7,063229821240944E-003	0,0000000E+000	1,1999834E+000	0,0000000E+000	0,000000000000000E+000	1,1968107E+000
2	1	0	0	0	0	1	1,406743462876687E+004	4,611586644657784E-004	7,524388485706722E-003	1,1999834E+000	1,3579061E+001	13	7,524388485706722E-003	0	1,2381969E+001	1,8786306E-004	1,021828334745123E-004	0,000000000000000E+000	8,838026884979097E+003	0,000000000000000E+000	1,383476010147347E-002	0,000000000000000E+000	7,524388485706722E-003	7,524388485706722E-003	0,0000000E+000	1,1999834E+000	0,0000000E+000	0,000000000000000E+000	1,1970911E+000
2	1	0	0	0	0	1	1,418743462731401E+004	4,517755857431847E-004	7,976164071449906E-003	1,1999834E+000	1,3580745E+001	13	7,976164071449908E-003	0	1,2383774E+001	1,8406346E-004	1,083182823857666E-004	0,000000000000000E+000	9,363529977834285E+003	0,000000000000000E+000	1,355326773638758E-002	0,000000000000000E+000	7,976164071449908E-003	7,976164071449908E-003	0,0000000E+000	1,1999834E+000	0,0000000E+000	0,000000000000000E+000	1,1969709E+000
2	1	0	0	0	0	1	1,430743462586115E+004	4,427166438668759E-004	8,418880715316782E-003	1,1999834E+000	1,3580544E+001	13	8,418880715316783E-003	0	1,2383212E+001	1,8036999E-004	1,143306154561805E-004	0,000000000000000E+000	9,883897798374312E+003	0,000000000000000E+000	1,328149947680796E-002	0,000000000000000E+000	8,418880715316783E-003	8,418880715316783E-003	0,0000000E+000	1,1999834E+000	0,0000000E+000	0,000000000000000E+000	1,1973324E+000
2	1	0	0	0	0	1	1,442743462440828E+004	4,339190699798573E-004	8,852799785296640E-003	1,1999834E+000	1,3580985E+001	13	8,852799785296640E-003	0	1,2384174E+001	1,7679145E-004	1,202236638668506E-004	0,000000000000000E+000	1,039183242426395E+004	0,000000000000000E+000	1,301757225700198E-002	0,000000000000000E+000	8,852799785296640E-003	8,852799785296640E-003	0,0000000E+000	1,1999834E+000	0,0000000E+000	0,000000000000000E+000	1,1968107E+000
2	1	0	0	0	0	1	1,454743462295542E+004	4,251583941723220E-004	9,277958179468962E-003	1,1999834E+000	1,3580384E+001	13	9,277958179468962E-003	0	1,2383452E+001	1,7321443E-004	1,259974782287180E-004	0,000000000000000E+000	1,089303734827663E+004	0,000000000000000E+000	1,275475197959391E-002	0,000000000000000E+000	9,277958179468962E-003	9,277958179468962E-003	0,0000000E+000	1,1999834E+000	0,0000000E+000	0,000000000000000E+000	1,1969318E+000
2	1	0	0	0	0	1	1,466743462150256E+004	4,165791527491787E-004	9,694537332218140E-003	1,1999834E+000	1,3578540E+001	13	9,694537332218140E-003	0	1,2381849E+001	1,6969610E-004	1,316540148543053E-004	0,000000000000000E+000	1,138898406274167E+004	0,000000000000000E+000	1,249737473378350E-002	0,000000000000000E+000	9,694537332218140E-003	9,694537332218140E-003	0,0000000E+000	1,1999834E+000	0,0000000E+000	0,000000000000000E+000	1,1966906E+000
2	1	0	0	0	0	1	1,478743462004969E+004	4,082807209950665E-004	1,010281805321321E-002	1,1999834E+000	1,3580384E+001	13	1,010281805321321E-002	0	1,2383412E+001	1,6633827E-004	1,371986239291045E-004	0,000000000000000E+000	1,186148635806782E+004	0,000000000000000E+000	1,224842177814601E-002	0,000000000000000E+000	1,010281805321321E-002	1,010281805321321E-002	0,0000000E+000	1,1999834E+000	0,0000000E+000	0,000000000000000E+000	1,1969719E+000
2	1	0	0	0	0	1	1,490743461859683E+004	4,002807567116494E-004	1,050309880992486E-002	1,1999834E+000	1,3579903E+001	13	1,050309880992486E-002	0	1,2383052E+001	1,6307321E-004	1,426343976374870E-004	0,000000000000000E+000	1,233338396019533E+004	0,000000000000000E+000	1,200842284673778E-002	0,000000000000000E+000	1,050309880992486E-002	1,050309880992486E-002	0,0000000E+000	1,1999834E+000	0,0000000E+000	0,000000000000000E+000	1,1968508E+000
2	1	0	0	0	0	1	1,502743461714397E+004	3,924549964455784E-004	1,089555380637043E-002	1,1999834E+000	1,3578460E+001	13	1,089555380637043E-002	0	1,2381969E+001	1,5986802E-004	1,479633320063616E-004	0,000000000000000E+000	1,280025321475681E+004	0,000000000000000E+000	1,177365003591321E-002	0,000000000000000E+000	1,089555380637043E-002	1,089555380637043E-002	0,0000000E+000	1,1999834E+000	0,0000000E+000	0,000000000000000E+000	1,1964903E+000
2	1	0	0	0	0	1	1,514743461569111E+004	3,847944856614599E-004	1,128034829203189E-002	1,1999834E+000	1,3578580E+001	13	1,128034829203189E-002	0	1,2381649E+001	1,5674888E-004	1,531882946760144E-004	0,000000000000000E+000	1,325179565579359E+004	0,000000000000000E+000	1,154383470960724E-002	0,000000000000000E+000	1,128034829203189E-002	1,128034829203189E-002	0,0000000E+000	1,1999834E+000	0,0000000E+000	0,000000000000000E+000	1,1969309E+000
2	1	0	0	0	0	1	1,526743461423824E+004	3,773675894783292E-004	1,165771588151022E-002	1,1999834E+000	1,3579823E+001	13	1,165771588151022E-002	0	1,2383092E+001	1,5373755E-004	1,583128795735845E-004	0,000000000000000E+000	1,368956397848366E+004	0,000000000000000E+000	1,132102782141575E-002	0,000000000000000E+000	1,165771588151022E-002	1,165771588151022E-002	0,0000000E+000	1,1999834E+000	0,0000000E+000	0,000000000000000E+000	1,1967306E+000
2	1	0	0	0	0	1	1,538743461278538E+004	3,700152224275387E-004	1,202773110393776E-002	1,1999834E+000	1,3577698E+001	13	1,202773110393776E-002	0	1,2381047E+001	1,5071865E-004	1,633368344280500E-004	0,000000000000000E+000	1,413386596617183E+004	0,000000000000000E+000	1,110045680722154E-002	0,000000000000000E+000	1,202773110393776E-002	1,202773110393776E-002	0,0000000E+000	1,1999834E+000	0,0000000E+000	0,000000000000000E+000	1,1966505E+000
2	1	0	0	0	0	1	1,550743461133252E+004	3,628427105378360E-004	1,239057381447560E-002	1,1999834E+000	1,3579101E+001	13	1,239057381447560E-002	0	1,2382090E+001	1,4781233E-004	1,682639120996224E-004	0,000000000000000E+000	1,455358047951242E+004	0,000000000000000E+000	1,088528144792529E-002	0,000000000000000E+000	1,239057381447560E-002	1,239057381447560E-002	0,0000000E+000	1,1999834E+000	0,0000000E+000	0,000000000000000E+000	1,1970110E+000
2	1	0	0	0	0	1	1,562743460987965E+004	3,558638092726469E-004	1,274643762374825E-002	1,1999834E+000	1,3579903E+001	13	1,274643762374825E-002	0	1,2383052E+001	1,4497788E-004	1,730965079858208E-004	0,000000000000000E+000	1,496765023193108E+004	0,000000000000000E+000	1,067591440743477E-002	0,000000000000000E+000	1,274643762374825E-002	1,274643762374825E-002	0,0000000E+000	1,1999834E+000	0,0000000E+000	0,000000000000000E+000	1,1968508E+000
2	1	0	0	0	0	1	1,574743460842679E+004	3,490814943838244E-004	1,309551911813207E-002	1,1999834E+000	1,3577538E+001	13	1,309551911813207E-002	0	1,2380486E+001	1,4219001E-004	1,778361750791569E-004	0,000000000000000E+000	1,538943552293368E+004	0,000000000000000E+000	1,047244495830665E-002	0,000000000000000E+000	1,309551911813207E-002	1,309551911813207E-002	0,0000000E+000	1,1999834E+000	0,0000000E+000	0,000000000000000E+000	1,1970520E+000
2	1	0	0	0	0	1	1,586743460697393E+004	3,426554855998709E-004	1,343817460373194E-002	1,1999834E+000	1,3578339E+001	13	1,343817460373194E-002	0	1,2381528E+001	1,3958076E-004	1,824888672936765E-004	0,000000000000000E+000	1,578798469107227E+004	0,000000000000000E+000	1,027966469245402E-002	0,000000000000000E+000	1,343817460373194E-002	1,343817460373194E-002	0,0000000E+000	1,1999834E+000	0,0000000E+000	0,000000000000000E+000	1,1968107E+000
2	1	0	0	0	0	1	1,598193440558766E+004	3,209802265454911E-004	1,375915483027743E-002	1,1999834E+000	1,3577618E+001	13	1,375915483027743E-002	0	1,2380647E+001	1,3702494E-004	1,868470140814013E-004	0,000000000000000E+000	1,616889617979697E+004	0,000000000000000E+000	1,009197247116548E-002	0,000000000000000E+000	1,375915483027743E-002	1,375915483027743E-002	0,0000000E+000	1,1999834E+000	0,0000000E+000	0,000000000000000E+000	1,1969709E+000
2	1	0	0	0	0	1	1,598193460558765E+004	5,540154977805085E-010	1,375915538429293E-002	1,1999834E+000	1,3577538E+001	13	1,375915538429293E-002	0	1,2380887E+001	1,3539899E-004	1,868470216035675E-004	0,000000000000000E+000	1,616931965250759E+004	0,000000000000000E+000	9,972279211970116E-003	0,000000000000000E+000	1,375915538429293E-002	1,375915538429293E-002	0,0000000E+000	1,1999834E+000	0,0000000E+000	0,000000000000000E+000	1,1966505E+000
3	1	0	1	0	0	1	1,598198300558707E+004	0,000000000000000E+000	1,375915649469404E-002	1,1999834E+000	1,0514146E+001	13	1,375915538429293E-002	0	1,3592983E+001	0,0000000E+000	1,868470216035675E-004	0,000000000000000E+000	1,616931965250759E+004	0,000000000000000E+000	0,000000000000000E+000	0,000000000000000E+000	1,375915538429293E-002	1,375915538429293E-002	0,0000000E+000	0,0000000E+000	0,0000000E+000	0,000000000000000E+000	-3,0788374E+000
3	1	0	1	0	0	1	1,604188520486181E+004	0,000000000000000E+000	1,375915649469404E-002	0,0000000E+000	1,4684354E+001	14	1,375915538429293E-002	0	1,3578070E+001	0,0000000E+000	1,868470216035675E-004	0,000000000000000E+000	1,616931965250759E+004	0,000000000000000E+000	0,000000000000000E+000	0,000000000000000E+000	1,375915538429293E-002	1,375915538429293E-002	0,0000000E+000	0,0000000E+000	0,0000000E+000	0,000000000000000E+000	1,1062841E+000
3	1	0	1	0	0	1	1,604193480486122E+004	0,000000000000000E+000	1,375915649469404E-002	0,0000000E+000	1,4683953E+001	14	1,375915538429293E-002	0	1,3577909E+001	0,0000000E+000	1,868470216035675E-004	0,000000000000000E+000	1,616931965250759E+004	0,000000000000000E+000	0,000000000000000E+000	0,000000000000000E+000	1,375915538429293E-002	1,375915538429293E-002	0,0000000E+000	0,0000000E+000	0,0000000E+000	0,000000000000000E+000	1,1060438E+000