File: SAMPLE-MPT/20220309_SSB_Cell_03_Form01/20220309_(Form02C)EIS_charging_10bis16V_step_01V+(1C+EIS)50cycle_05_GEIS_C08.mpt
EC-Lab ASCII FILE
Nb header lines : 72

Galvano Electrochemical Impedance Spectroscopy

Run on channel : 8 (SN 14384)
User :
CE vs. WE compliance from -10 V to 10 V
Electrode connection : standard
Potential control : Ewe-Ece
Ewe ctrl range : min = 0,00 V, max = 5,00 V
Safety Limits :
	Do not start on E overload
Acquisition started on : 03/09/2022 13:55:05.456
Technique started on : 03/09/2022 16:59:47.281
Loaded Setting File :  C:\DATA\x_Data_VMP3\Extern\InES\Binbin\001_Testing_Profiles\20220308_(Form02C)EIS_charging_10bis16V_step_01V+(1C+EIS)50cycle.mps
Saved on :
	File : 20220309_(Form02C)EIS_charging_10bis16V_step_01V+(1C+EIS)50cycle_05_GEIS_C08.mpr
	Directory : C:\DATA\x_Data_VMP3\Extern\InES\Binbin\20220309_SSB_Cell_03_Form01\
	Host : 134.169.45.143
Device : VMP3 (SN 0787)
Address : 134.169.45.150
EC-Lab for windows v11.42 (software)
Internet server v11.40 (firmware)
Command interpretor v11.40 (firmware)
Electrode material :
Initial state :
Electrolyte :
Comments :
Electrode surface area : 0,000 cm²
Characteristic mass : 0,001 g
Equivalent Weight : 0,000 g/eq.
Density : 0,000 g/cm3
Volume (V) : 0,001 cm³
Record Ece
Record Power
Cycle Definition : Charge/Discharge alternance
Mode                Single sine
Is                  0,000
unit Is             µA
vs.                 <None>
tIs (h:m:s)         0:00:0,0000
record              0
dE (mV)             0,000
dt (s)              0,000
fi                  1,000
unit fi             MHz
ff                  5,000
unit ff             mHz
Nd                  6
Points              per decade
spacing             Logarithmic
Ia/Va               Ia
Ia                  5,000
unit  Ia            µA
va pourcent         0,10
pw                  0,10
Na                  2
corr                0
E range min (V)     0,000
E range max (V)     5,000
I Range             10 µA
Bandwidth           5
nc cycles           0
goto Ns'            0
nr cycles           0
inc. cycle          0

Number of loops : 1
Loop 0 from point number 0 to 49

freq/Hz	Re(Z)/Ohm	-Im(Z)/Ohm	|Z|/Ohm	Phase(Z)/deg	time/s	<Ewe>/V	<I>/mA	Cs/µF	Cp/µF	cycle number	|Ewe|/V	|I|/A	Ns	I Range	(Q-Qo)/mA.h	<Ece>/V	|Ece|/V	Phase(Zce)/deg	|Zce|/Ohm	Re(Zce)/Ohm	-Im(Zce)/Ohm	Phase(Zwe-ce)/deg	|Zwe-ce|/Ohm	Re(Zwe-ce)/Ohm	-Im(Zwe-ce)/Ohm	P/W	Re(Y)/Ohm-1	Im(Y)/Ohm-1	|Y|/Ohm-1	Phase(Y)/deg	dq/mA.h
1,0000186E+006	-2,9032774E+001	4,7667931E+001	5,5813381E+001	-1,2134405E+002	1,108182518641948E+004	1,3580703E+001	1,0931889E-005	3,3387644E-003	2,4353517E-003	1,000000000000000E+000	2,8971586E-004	5,1907955E-006	0	14	1,009298577175046E-009	1,2607504E+001	2,0380924E-004	4,0337555E+001	3,9263584E+001	2,9928440E+001	-2,5414907E+001	-8,7695137E+001	2,2271040E+001	8,9566612E-001	2,2253023E+001	0,0000000E+000	-9,3199126E-003	1,5302051E-002	1,7916851E-002	1,2134405E+002	1,009298577175046E-009
6,7700600E+005	-1,6963648E+001	3,5700058E+001	3,9525429E+001	-1,1541573E+002	1,108234118644398E+004	1,3580626E+001	1,3352081E-005	6,5850443E-003	5,3720912E-003	1,000000000000000E+000	2,0286838E-004	5,1326042E-006	0	14	2,833629353239707E-009	1,2605139E+001	1,3121169E-004	1,9448990E+001	2,5564350E+001	2,4105604E+001	-8,5120974E+000	-7,5281609E+001	2,8110369E+001	7,1419563E+000	2,7187962E+001	0,0000000E+000	-1,0858406E-002	2,2851553E-002	2,5300168E-002	1,1541573E+002	1,824330776064661E-009
4,5833025E+005	-1,8917089E+000	3,5358231E+001	3,5408798E+001	-9,3062477E+001	1,108272618646227E+004	1,3580744E+001	1,8630226E-005	9,8208953E-003	9,7928643E-003	1,000000000000000E+000	1,8324255E-004	5,1750571E-006	0	14	3,654842857776607E-009	1,2607544E+001	1,4139533E-004	-1,4815102E+001	2,7322468E+001	2,6414160E+001	6,9863710E+000	-5,9924164E+001	4,8932770E+001	2,4522451E+001	4,2344601E+001	0,0000000E+000	-1,5088019E-003	2,8201237E-002	2,8241569E-002	9,3062477E+001	8,212135045368997E-010
3,1029172E+005	1,2362986E+001	3,7230179E+001	3,9229195E+001	-7,1630280E+001	1,108311118648056E+004	1,3580735E+001	1,4843825E-005	1,3777005E-002	1,2408700E-002	1,000000000000000E+000	1,9059466E-004	4,8584902E-006	0	14	1,090043546494396E-008	1,2605579E+001	1,8942727E-004	-3,3131981E+001	3,8988918E+001	3,2649857E+001	2,1310152E+001	-5,2442589E+001	7,3845284E+001	4,5012840E+001	5,8540329E+001	0,0000000E+000	8,0334945E-003	2,4192255E-002	2,5491219E-002	7,1630280E+001	7,245592607167358E-009
2,1007459E+005	2,8150995E+001	1,1903060E+001	3,0564054E+001	-2,2920055E+001	1,108349618649884E+004	1,3580648E+001	1,6862126E-005	6,3648470E-002	9,6534658E-003	1,000000000000000E+000	1,4719628E-004	4,8159932E-006	0	14	4,455663810100911E-009	1,2607464E+001	2,0652619E-004	-4,4859116E+001	4,2883408E+001	3,0397619E+001	3,0248495E+001	-3,5751663E+001	7,2143562E+001	5,8548615E+001	4,2151554E+001	0,0000000E+000	3,0135043E-002	1,2741973E-002	3,2718170E-002	2,2920055E+001	-6,444771654843054E-009
1,4222091E+005	1,8159357E+001	-5,9115195E+000	1,9097338E+001	1,8031919E+001	1,108375018651091E+004	1,3580626E+001	1,6660239E-005	-1,8930303E-001	-1,8138867E-002	1,000000000000000E+000	9,3330767E-005	4,8871088E-006	0	14	2,735192654161741E-009	1,2606141E+001	3,1511302E-004	-5,1665031E+001	6,4478416E+001	3,9993244E+001	5,0576740E+001	-3,7526756E+001	7,3326035E+001	5,8152603E+001	4,4665222E+001	0,0000000E+000	4,9791455E-002	-1,6208898E-002	5,2363321E-002	-1,8031919E+001	-1,720471155939170E-009
9,6283031E+004	7,8931541E+000	-8,3966303E+000	1,1524117E+001	4,6770306E+001	1,108400418652297E+004	1,3580560E+001	1,7273373E-005	-1,9686358E-001	-1,0451053E-001	1,000000000000000E+000	5,5487624E-005	4,8149132E-006	0	14	4,380845443342373E-010	1,2607344E+001	4,2361856E-004	-5,5245132E+001	8,7980522E+001	5,0154755E+001	7,2284668E+001	-4,7742088E+001	8,6320572E+001	5,8047909E+001	6,3888039E+001	0,0000000E+000	5,9434038E-002	-6,3225128E-002	8,6774543E-002	-4,6770306E+001	-2,297108109827504E-009
6,5181484E+004	3,6094382E+000	-6,0884142E+000	7,0779114E+000	5,9338963E+001	1,108438918654126E+004	1,3580665E+001	1,6850154E-005	-4,0104371E-001	-2,9674938E-001	1,000000000000000E+000	3,4388500E-005	4,8585662E-006	0	14	4,210556594639709E-009	1,2606221E+001	5,1762298E-004	-5,3396076E+001	1,0653822E+002	6,3526592E+001	8,5526390E+001	-4,9797585E+001	1,0400787E+002	6,7136032E+001	7,9437973E+001	0,0000000E+000	7,2049230E-002	-1,2153292E-001	1,4128461E-001	-5,9338963E+001	3,772472050305472E-009
4,4128563E+004	1,8758535E+000	-5,2369337E+000	5,5627604E+000	7,0292633E+001	1,108477418655955E+004	1,3580711E+001	1,4606113E-005	-6,8868923E-001	-6,1037499E-001	1,000000000000000E+000	2,6659005E-005	4,7924059E-006	0	14	7,238701818121424E-009	1,2608466E+001	6,7457889E-004	-5,3225410E+001	1,4075996E+002	8,4268547E+001	1,1274831E+002	-5,1296253E+001	1,3776630E+002	8,6144402E+001	1,0751138E+002	0,0000000E+000	6,0620319E-002	-1,6923742E-001	1,7976686E-001	-7,0292633E+001	3,028145223481715E-009
2,9876783E+004	-1,4077889E+000	-3,7966955E+000	4,0492921E+000	1,1034444E+002	1,108515918657783E+004	1,3580798E+001	1,4354953E-005	-1,4030739E+000	-1,2334850E+000	1,000000000000000E+000	1,9180810E-005	4,7368308E-006	0	14	4,732586319783472E-009	1,2607224E+001	8,5955468E-004	-5,3659092E+001	1,8146198E+002	1,0753226E+002	1,4616859E+002	-5,3299034E+001	1,7757298E+002	1,0612447E+002	1,4237190E+002	0,0000000E+000	-8,5857712E-002	-2,3155148E-001	2,4695675E-001	-1,1034444E+002	-2,506115498337952E-009
2,0227139E+004	1,4292530E+000	-1,9018452E+000	2,3790290E+000	5,3074825E+001	1,108554418659612E+004	1,3580704E+001	1,4147832E-005	-4,1372380E+000	-2,6439996E+000	1,000000000000000E+000	1,1201328E-005	4,7083608E-006	0	14	-6,039560254420293E-011	1,2607344E+001	1,0841697E-003	-5,4182766E+001	2,3026479E+002	1,3475131E+002	1,8671892E+002	-5,3615734E+001	2,2957025E+002	1,3618057E+002	1,8481708E+002	0,0000000E+000	2,5252804E-001	-3,3602816E-001	4,2033955E-001	-5,3074825E+001	-4,792981922327675E-009
1,3695073E+004	9,3692428E-001	-2,6448832E+000	2,8059285E+000	7,0493805E+001	1,108592918661440E+004	1,3580837E+001	1,4172830E-005	-4,3938913E+000	-3,9039936E+000	1,000000000000000E+000	1,3242131E-005	4,7193403E-006	0	14	-1,784441796252799E-009	1,2607224E+001	1,3723744E-003	-5,4103752E+001	2,9079791E+002	1,7050043E+002	2,3556958E+002	-5,3646172E+001	2,8921390E+002	1,7143735E+002	2,3292470E+002	0,0000000E+000	1,1900117E-001	-3,3593351E-001	3,5638827E-001	-7,0493805E+001	-1,724046193708596E-009
9,2692256E+003	1,5913702E+000	1,0854647E+000	1,9263159E+000	-3,4297680E+001	1,108631418663269E+004	1,3580742E+001	1,8626934E-005	1,5818342E+001	5,0227017E+000	1,000000000000000E+000	9,1541497E-006	4,7521539E-006	0	14	3,367556605427227E-009	1,2609028E+001	1,7521974E-003	-5,3932007E+001	3,6871646E+002	2,1707994E+002	2,9804050E+002	-5,3831921E+001	3,7053137E+002	2,1867131E+002	2,9912598E+002	0,0000000E+000	4,2886066E-001	2,9252344E-001	5,1912564E-001	3,4297680E+001	5,151998401680026E-009
6,2722681E+003	1,2879968E+000	2,0425905E-001	1,3040925E+000	-9,0113010E+000	1,108669918665098E+004	1,3580528E+001	1,4746060E-005	1,2422649E+002	3,0476143E+000	1,000000000000000E+000	6,2691074E-006	4,8072566E-006	0	14	4,255968166186600E-009	1,2607384E+001	2,2634834E-003	-5,3190487E+001	4,7084720E+002	2,8211118E+002	3,7697528E+002	-5,3080112E+001	4,7178329E+002	2,8339917E+002	3,7717953E+002	0,0000000E+000	7,5735229E-001	1,2010595E-001	7,6681674E-001	9,0113010E+000	8,884115607593735E-010
4,2448467E+003	-6,2258359E-002	1,8713580E+000	1,8723934E+000	-9,1905472E+001	1,108712518667121E+004	1,3580543E+001	1,1255558E-005	2,0035549E+001	2,0013397E+001	1,000000000000000E+000	9,1130159E-006	4,8670413E-006	0	14	1,332925755996762E-008	1,2609428E+001	2,9015949E-003	-5,1868626E+001	5,9617224E+002	3,6811652E+002	4,6894730E+002	-5,1984104E+001	5,9760699E+002	3,6805426E+002	4,7081866E+002	0,0000000E+000	-1,7758355E-002	5,3378046E-001	5,3407580E-001	9,1905472E+001	9,073289393781024E-009
2,8779956E+003	3,4031868E+000	6,5018749E-001	3,4647400E+000	-1,0816161E+001	1,108752618669026E+004	1,3580507E+001	5,5710216E-006	8,5053337E+001	2,9952102E+000	1,000000000000000E+000	1,5931479E-005	4,5981742E-006	0	14	1,322118813017268E-008	1,2609950E+001	3,4770817E-003	-5,0448021E+001	7,5618744E+002	4,8152353E+002	5,8305621E+002	-5,0281158E+001	7,5885907E+002	4,8492673E+002	5,8370642E+002	0,0000000E+000	2,8349438E-001	5,4162323E-002	2,8862193E-001	1,0816161E+001	-1,080694297949471E-010
1,9481171E+003	-1,0783235E+000	-1,6997125E+000	2,0129094E+000	1,2239166E+002	1,108820218672237E+004	1,3580603E+001	6,3775092E-006	-4,8065075E+001	-3,4271420E+001	1,000000000000000E+000	9,8499613E-006	4,8933953E-006	0	14	1,232172080755037E-008	1,2604056E+001	4,6148850E-003	-4,8265427E+001	9,4308447E+002	6,2779321E+002	7,0376416E+002	-4,8245529E+001	9,4109833E+002	6,2671490E+002	7,0206445E+002	0,0000000E+000	-2,6613414E-001	-4,1949522E-001	4,9679336E-001	-1,2239166E+002	-8,994673226223115E-010
1,3187339E+003	1,8856436E-002	2,4065008E+000	2,4065747E+000	-8,9551064E+001	1,108864818674355E+004	1,3580235E+001	6,3103280E-006	5,0150696E+001	5,0147614E+001	1,000000000000000E+000	1,1608847E-005	4,8238048E-006	0	14	1,236032535062906E-008	1,2605339E+001	5,6100609E-003	-4,5730892E+001	1,1629950E+003	8,1180457E+002	8,3278491E+002	-4,5812862E+001	1,1647325E+003	8,1182343E+002	8,3519141E+002	0,0000000E+000	3,2558055E-003	4,1551557E-001	4,1552833E-001	8,9551064E+001	3,860454307869036E-011
8,9299957E+002	8,3847308E-001	-1,1969859E-001	8,4697396E-001	8,1245251E+000	1,108909318676469E+004	1,3580359E+001	4,8246284E-006	-1,4889490E+003	-2,9738415E+001	1,000000000000000E+000	4,0580835E-006	4,7912731E-006	0	14	1,199232666183687E-008	1,2604778E+001	6,7618084E-003	-4,3039795E+001	1,4112759E+003	1,0314731E+003	9,6320447E+002	-4,3013020E+001	1,4118073E+003	1,0323116E+003	9,6308478E+002	0,0000000E+000	1,1688237E+000	-1,6685872E-001	1,1806738E+000	-8,1245251E+000	-3,679986887921891E-010
6,0441974E+002	2,1293125E+000	-2,8379700E+000	3,5479636E+000	5,3119316E+001	1,108953718678578E+004	1,3580196E+001	7,6030833E-006	-9,2784126E+001	-5,9365070E+001	1,000000000000000E+000	1,6943190E-005	4,7754688E-006	0	14	1,158500857882751E-008	1,2612836E+001	8,0999006E-003	-4,0156635E+001	1,6961477E+003	1,2963391E+003	1,0938108E+003	-4,0036968E+001	1,6959486E+003	1,2984684E+003	1,0909728E+003	0,0000000E+000	1,6915354E-001	-2,2544962E-001	2,8185183E-001	-5,3119316E+001	-4,073180830093599E-010
4,0908368E+002	-3,5890689E-001	3,2085423E+000	3,2285535E+000	-9,6382561E+001	1,108998318680696E+004	1,3580252E+001	8,5789970E-006	1,2125514E+002	1,1975668E+002	1,000000000000000E+000	1,5396750E-005	4,7689314E-006	0	14	1,443727130094885E-008	1,2599245E+001	9,5821554E-003	-3,7293884E+001	2,0092877E+003	1,5984651E+003	1,2174344E+003	-3,7372803E+001	2,0109482E+003	1,5981062E+003	1,2206429E+003	0,0000000E+000	-3,4432277E-002	3,0781642E-001	3,0973622E-001	9,6382561E+001	2,852262722121343E-009
2,7686047E+002	4,8215613E+000	-6,0218555E-001	4,8590207E+000	7,1190534E+000	1,109042418682791E+004	1,3580201E+001	5,9692306E-006	-9,5461633E+002	-1,4661959E+001	1,000000000000000E+000	2,3156512E-005	4,7656745E-006	0	14	1,449378769300185E-008	1,2620934E+001	1,1178806E-002	-3,4461338E+001	2,3456924E+003	1,9340426E+003	1,3273101E+003	-3,4382690E+001	2,3493293E+003	1,9388641E+003	1,3267079E+003	0,0000000E+000	2,0421620E-001	-2,5505440E-002	2,0580278E-001	-7,1190534E+000	5,651639205300270E-011
1,8742110E+002	1,6682931E+000	5,3661103E+000	5,6194611E+000	-7,2729828E+001	1,109087518684933E+004	1,3580229E+001	5,3456142E-006	1,5824940E+002	1,4430186E+002	1,000000000000000E+000	2,6767606E-005	4,7633762E-006	0	14	1,757083206366872E-008	1,2612475E+001	1,2901381E-002	-3,1542776E+001	2,7084531E+003	2,3082788E+003	1,4168866E+003	-3,1620935E+001	2,7126846E+003	2,3099470E+003	1,4222527E+003	0,0000000E+000	5,2830294E-002	1,6993009E-001	1,7795300E-001	7,2729828E+001	3,077044370666866E-009
1,2699121E+002	1,0093886E+001	1,0436740E+001	1,4519369E+001	-4,5956730E+001	1,109131318687013E+004	1,3580214E+001	6,9473749E-006	1,2008302E+002	6,2046291E+001	1,000000000000000E+000	6,9158006E-005	4,7631552E-006	0	14	1,847501846474289E-008	1,2596600E+001	1,4671228E-002	-2,8949917E+001	3,0801492E+003	2,6952634E+003	1,4909305E+003	-2,9028557E+001	3,0940366E+003	2,7053574E+003	1,5013673E+003	0,0000000E+000	4,7880966E-002	4,9507316E-002	6,8873517E-002	4,5956730E+001	9,041864010741693E-010
8,5907173E+001	3,0430396E+000	-1,3097851E+001	1,3446702E+001	7,6920441E+001	1,109175418689108E+004	1,3580235E+001	8,2240840E-006	-1,4144600E+002	-1,3420206E+002	1,000000000000000E+000	6,4059539E-005	4,7639592E-006	0	14	2,230811903099392E-008	1,2595036E+001	1,6583739E-002	-2,6422586E+001	3,4810833E+003	3,1174368E+003	1,5490411E+003	-2,6207048E+001	3,4780044E+003	3,1204797E+003	1,5359432E+003	0,0000000E+000	1,6829690E-002	-7,2438344E-002	7,4367680E-002	-7,6920441E+001	3,833100566251032E-009
5,8157570E+001	9,0565767E+000	-7,0667686E+000	1,1487419E+001	3,7964611E+001	1,109221318691288E+004	1,3580202E+001	8,1236867E-006	-3,8725140E+002	-1,4655135E+002	1,000000000000000E+000	5,4717821E-005	4,7632825E-006	0	14	1,998451690299892E-008	1,2603174E+001	1,8430552E-002	-2,3796616E+001	3,8692964E+003	3,5403423E+003	1,5612272E+003	-2,3646967E+001	3,8747449E+003	3,5493989E+003	1,5541604E+003	0,0000000E+000	6,8630807E-002	-5,3552032E-002	8,7051757E-002	-3,7964611E+001	-2,323602127994997E-009
3,9407314E+001	5,1848569E+000	3,3552470E+000	6,1757932E+000	-3,2907890E+001	1,109266318693425E+004	1,3580200E+001	6,7256942E-006	1,2037015E+003	3,5528946E+002	1,000000000000000E+000	2,9412180E-005	4,7624944E-006	0	14	1,484814893291918E-008	1,2624342E+001	2,0330651E-002	-2,0845276E+001	4,2689082E+003	3,9894858E+003	1,5190720E+003	-2,0862574E+001	4,2749478E+003	3,9946707E+003	1,5224272E+003	0,0000000E+000	1,3594125E-001	8,7970898E-002	1,6192251E-001	3,2907890E+001	-5,136367970079744E-009
2,6682035E+001	8,4125223E+000	2,8457763E+000	8,8808203E+000	-1,8689579E+001	1,109308218695415E+004	1,3580153E+001	5,8968267E-006	2,0960439E+003	2,1522650E+002	1,000000000000000E+000	4,2308016E-005	4,7639764E-006	0	14	1,709785720577707E-008	1,2597642E+001	2,2090690E-002	-1,8089645E+001	4,6370273E+003	4,4078276E+003	1,4398185E+003	-1,8090792E+001	4,6459077E+003	4,4162402E+003	1,4426643E+003	0,0000000E+000	1,0666454E-001	3,6082331E-002	1,1260221E-001	1,8689579E+001	2,249708272857890E-009
1,8042725E+001	7,4221725E+000	-1,5626603E+000	7,5848899E+000	1,1889380E+001	1,109357218697743E+004	1,3580154E+001	1,0219933E-005	-5,6448633E+003	-2,3959846E+002	1,000000000000000E+000	3,6117181E-005	4,7617277E-006	0	14	8,879982118243232E-009	1,2614921E+001	2,3668120E-002	-1,5370423E+001	4,9704897E+003	4,7927070E+003	1,3174701E+003	-1,5330431E+001	4,9772334E+003	4,8001294E+003	1,3159075E+003	0,0000000E+000	1,2901270E-001	-2,7162267E-002	1,3184106E-001	-1,1889380E+001	-8,217875087533837E-009
1,2226137E+001	5,8324928E+000	-8,1532593E+000	1,0024650E+001	5,4421692E+001	1,109394018699491E+004	1,3580186E+001	6,2588260E-006	-1,5966129E+003	-1,0561454E+003	1,000000000000000E+000	4,7734407E-005	4,7617032E-006	0	14	4,165108199049744E-008	1,2607023E+001	2,4997501E-002	-1,2927600E+001	5,2496973E+003	5,1166362E+003	1,1744603E+003	-1,2826702E+001	5,2535664E+003	5,1224688E+003	1,1663071E+003	0,0000000E+000	5,8038447E-002	-8,1132121E-002	9,9754110E-002	-5,4421692E+001	3,277109987225420E-008
8,2759562E+000	1,0125989E+001	-2,9646864E+000	1,0551067E+001	1,6318972E+001	1,109447318702022E+004	1,3580195E+001	9,3821136E-006	-6,4866909E+003	-5,1213910E+002	1,000000000000000E+000	5,0246312E-005	4,7622016E-006	0	14	-4,016658626811578E-009	1,2623861E+001	2,6067378E-002	-1,0743843E+001	5,4738081E+003	5,3778545E+003	1,0204189E+003	-1,0693683E+001	5,4832061E+003	5,3879805E+003	1,0174542E+003	0,0000000E+000	9,0958789E-002	-2,6630908E-002	9,4777144E-002	-1,6318972E+001	-4,566774061730901E-008
5,6043758E+000	6,7055364E+000	3,3452210E+000	7,4936452E+000	-2,6513439E+001	1,109487218703917E+004	1,3580182E+001	7,5377684E-006	8,4892246E+003	1,6917314E+003	1,000000000000000E+000	3,5679503E-005	4,7613012E-006	0	14	1,570400942248145E-008	1,2587700E+001	2,7001301E-002	-9,0609121E+000	5,6709922E+003	5,6002266E+003	8,9309283E+002	-9,0835905E+000	5,6781411E+003	5,6069321E+003	8,9643805E+002	0,0000000E+000	1,1941181E-001	5,9571508E-002	1,3344641E-001	2,6513439E+001	1,972066804929303E-008
3,7924759E+000	9,4555693E+000	5,9500909E-001	9,4742718E+000	-3,6006947E+000	1,109545118706668E+004	1,3580156E+001	6,6501234E-006	7,0529969E+004	2,7818213E+002	1,000000000000000E+000	4,5110482E-005	4,7613667E-006	0	14	7,494474784698469E-008	1,2588341E+001	2,7669374E-002	-7,8008690E+000	5,8112251E+003	5,7574468E+003	7,8876111E+002	-7,7940392E+000	5,8206738E+003	5,7669023E+003	7,8935614E+002	0,0000000E+000	1,0534065E-001	6,6287541E-003	1,0554901E-001	3,6006947E+000	5,924073842450324E-008
2,5682116E+000	1,0163430E+001	-2,9417644E+000	1,0580609E+001	1,6142876E+001	1,109629318710667E+004	1,3580208E+001	6,3080897E-006	-2,1065969E+004	-1,6284553E+003	1,000000000000000E+000	5,0389597E-005	4,7624476E-006	0	14	8,711153702918434E-008	1,2618369E+001	2,8344406E-002	-6,9755459E+000	5,9516470E+003	5,9075933E+003	7,2280200E+002	-6,9356184E+000	5,9613794E+003	5,9177568E+003	7,1986023E+002	0,0000000E+000	9,0786017E-002	-2,6277650E-002	9,4512515E-002	-1,6142876E+001	1,216678918219965E-008
1,7399776E+000	1,2211350E+001	-5,0652033E-001	1,2221851E+001	2,3752367E+000	1,109752518716519E+004	1,3580212E+001	7,4904365E-006	-1,8058413E+005	-3,1016968E+002	1,000000000000000E+000	5,8204765E-005	4,7623525E-006	0	14	1,496702639363119E-008	1,2638333E+001	2,8956668E-002	-6,4309707E+000	6,0803286E+003	6,0420684E+003	6,8103381E+002	-6,4133739E+000	6,0924067E+003	6,0542798E+003	6,8052728E+002	0,0000000E+000	8,1750371E-002	-3,3909618E-003	8,1820667E-002	-2,3752367E+000	-7,214451063555316E-008
1,1772907E+000	1,1119702E+001	2,9926043E+000	1,1515358E+001	-1,5062906E+001	1,109933418725111E+004	1,3580155E+001	7,7533450E-006	4,5173855E+004	3,0509202E+003	1,000000000000000E+000	5,4840824E-005	4,7624071E-006	0	14	-1,152361551914207E-007	1,2638935E+001	2,9633382E-002	-6,0936351E+000	6,2223540E+003	6,1871963E+003	6,6052539E+002	-6,1101365E+000	6,2337290E+003	6,1983159E+003	6,6351801E+002	0,0000000E+000	8,3856799E-002	2,2568069E-002	8,6840548E-002	1,5062906E+001	-1,302031815850518E-007
7,9621863E-001	1,1782197E+001	4,9488750E+000	1,2779340E+001	-2,2783861E+001	1,110199918737769E+004	1,3580176E+001	7,1309792E-006	4,0390695E+004	6,0572773E+003	1,000000000000000E+000	6,0864619E-005	4,7627359E-006	0	14	-2,203747853315829E-007	1,2621455E+001	3,0438675E-002	-6,1024156E+000	6,3910063E+003	6,3547915E+003	6,7940228E+002	-6,1352391E+000	6,4032490E+003	6,3665737E+003	6,8435114E+002	0,0000000E+000	7,2145529E-002	3,0303279E-002	7,8251302E-002	2,2783861E+001	-1,051386301401623E-007
5,3938830E-001	6,6906791E+000	3,0038035E+000	7,3340316E+000	-2,4177862E+001	1,110592218756402E+004	1,3580067E+001	8,7142416E-006	9,8230664E+004	1,6478002E+004	1,000000000000000E+000	3,4931109E-005	4,7628796E-006	0	14	-1,905572970350073E-007	1,2603054E+001	3,1283282E-002	-6,4917979E+000	6,5681445E+003	6,5260298E+003	7,4260083E+002	-6,5112128E+000	6,5751323E+003	6,5327207E+003	7,4560461E+002	0,0000000E+000	1,2438975E-001	5,5845212E-002	1,3635065E-001	2,4177862E+001	2,981748829657565E-008
3,6507010E-001	8,4174490E+000	-8,7874782E-001	8,4631939E+000	5,9598598E+000	1,111171218783903E+004	1,3580114E+001	7,5521984E-006	-4,9611181E+005	-5,3485928E+003	1,000000000000000E+000	4,0305724E-005	4,7624721E-006	0	14	1,129474199636257E-007	1,2585174E+001	3,2019142E-002	-7,1134081E+000	6,7232188E+003	6,6714702E+003	8,3256104E+002	-7,0971141E+000	6,7314629E+003	6,6798877E+003	8,3168231E+002	0,0000000E+000	1,1752003E-001	-1,2268619E-002	1,1815870E-001	-5,9598598E+000	3,035047169986329E-007
2,4724665E-001	9,8386698E+000	4,8146385E-001	9,8504429E+000	-2,8015840E+000	1,112025218824466E+004	1,3580106E+001	6,9889115E-006	1,3369835E+006	3,1940513E+003	1,000000000000000E+000	4,6909743E-005	4,7621966E-006	0	14	6,985033132462175E-007	1,2583530E+001	3,2745104E-002	-7,6128674E+000	6,8760508E+003	6,8154438E+003	9,1093225E+002	-7,6059923E+000	6,8858667E+003	6,8252827E+003	9,1141370E+002	0,0000000E+000	1,0139695E-001	4,9619479E-003	1,0151828E-001	2,8015840E+000	5,855558932825917E-007
1,6750640E-001	1,1298436E+001	-2,7049046E+000	1,1617709E+001	1,3463507E+001	1,113285018884303E+004	1,3580051E+001	6,8929094E-006	-3,5126653E+005	-1,9041434E+004	1,000000000000000E+000	5,5324999E-005	4,7621265E-006	0	14	1,342473637020716E-006	1,2598083E+001	3,3619959E-002	-7,9685650E+000	7,0598628E+003	6,9916948E+003	9,7870715E+002	-7,9341655E+000	7,0706782E+003	7,0029932E+003	9,7600226E+002	0,0000000E+000	8,3710000E-002	-2,0040611E-002	8,6075492E-002	-1,3463507E+001	6,439703237744980E-007
1,1320493E-001	1,7104647E+001	-1,2520228E+001	2,1197289E+001	3,6203316E+001	1,115148318972805E+004	1,3580211E+001	6,8293025E-006	-1,1229038E+005	-3,9174766E+004	1,000000000000000E+000	1,0094651E-004	4,7622370E-006	0	14	1,544060781910130E-006	1,2625625E+001	3,4603357E-002	-8,1914186E+000	7,2661982E+003	7,1920654E+003	1,0352930E+003	-8,0747280E+000	7,2813594E+003	7,2091699E+003	1,0227728E+003	0,0000000E+000	3,8067419E-002	-2,7864523E-002	4,7175843E-002	-3,6203316E+001	2,015871448894145E-007
7,6773763E-002	3,0864880E+001	-1,5636853E+001	3,4599884E+001	2,6867817E+001	1,117894919103262E+004	1,3580344E+001	6,9695466E-006	-1,3257388E+005	-2,7077426E+004	1,000000000000000E+000	1,6477294E-004	4,7622393E-006	0	14	6,422656261135620E-007	1,2651163E+001	3,5941981E-002	-8,2090998E+000	7,5472856E+003	7,4699526E+003	1,0776477E+003	-8,0587158E+000	7,5756274E+003	7,5008174E+003	1,0620109E+003	0,0000000E+000	2,5781922E-002	-1,3061712E-002	2,8901830E-002	-2,6867817E+001	-9,017951557965680E-007
5,1879965E-002	1,9356236E+001	-2,8551865E+000	1,9565683E+001	8,3910379E+000	1,121958719296282E+004	1,3580328E+001	6,8512991E-006	-1,0744495E+006	-2,2880469E+004	1,000000000000000E+000	9,3174887E-005	4,7621588E-006	0	14	-1,729156290643131E-006	1,2670166E+001	3,7654866E-002	-8,3183403E+000	7,9071001E+003	7,8239136E+003	1,1439435E+003	-8,2776737E+000	7,9258418E+003	7,8432700E+003	1,1410883E+003	0,0000000E+000	5,0562773E-002	-7,4583795E-003	5,1109895E-002	-8,3910379E+000	-2,371421916756693E-006
3,5195883E-002	2,8107176E+001	2,6968176E+000	2,8236256E+001	-5,4806190E+000	1,127948019580758E+004	1,3579982E+001	6,8679055E-006	1,6767823E+006	1,5295568E+004	1,000000000000000E+000	1,3446219E-004	4,7620401E-006	0	14	-5,285250249802453E-006	1,2673172E+001	3,9850838E-002	-8,7262115E+000	8,3684385E+003	8,2715703E+003	1,2696011E+003	-8,7153025E+000	8,3966299E+003	8,2996777E+003	1,2722979E+003	0,0000000E+000	3,5253558E-002	3,3824965E-003	3,5415459E-002	5,4806190E+000	-3,556093959159322E-006
2,3795672E-002	1,9348331E+001	1,4731649E+001	2,4318295E+001	-3,7285328E+001	1,136806020001491E+004	1,3580294E+001	6,9971138E-006	4,5401563E+005	1,6661239E+005	1,000000000000000E+000	1,1580140E-004	4,7619046E-006	0	14	-7,979774895125830E-006	1,2658339E+001	4,2200189E-002	-9,7301855E+000	8,8620400E+003	8,7345557E+003	1,4977615E+003	-9,8027411E+000	8,8836074E+003	8,7539043E+003	1,5124932E+003	0,0000000E+000	3,2717288E-002	2,4910657E-002	4,1121304E-002	3,7285328E+001	-2,694524645323377E-006
1,6098291E-002	7,2635895E+001	-3,1563192E+001	7,9197273E+001	2,3486870E+001	1,149898720623361E+004	1,3580047E+001	6,4371566E-006	-3,1322716E+005	-4,9750887E+004	1,000000000000000E+000	3,7714298E-004	4,7620701E-006	0	14	-6,293441647432852E-006	1,2637692E+001	4,4062983E-002	-1,1465281E+001	9,2529053E+003	9,0682666E+003	1,8392380E+003	-1,1186292E+001	9,3179277E+003	9,1409023E+003	1,8076748E+003	0,0000000E+000	1,1580594E-002	-5,0322302E-003	1,2626697E-002	-2,3486870E+001	1,686333247692977E-006
1,0915886E-002	-7,4192923E-001	-4,5763474E+001	4,5769485E+001	9,0928810E+001	1,169206321540423E+004	1,3580855E+001	6,8001368E-006	-3,1859734E+005	-3,1851366E+005	1,000000000000000E+000	2,1795850E-004	4,7620920E-006	0	14	3,612958869055546E-006	1,2622337E+001	4,5743383E-002	-1,2688470E+001	9,6057324E+003	9,3711484E+003	2,1098979E+003	-1,2422845E+001	9,5950596E+003	9,3704063E+003	2,0641345E+003	0,0000000E+000	-3,5416795E-004	-2,1845747E-002	2,1848617E-002	-9,0928810E+001	9,906400516488400E-006
7,3873415E-003	7,4523148E+001	-6,5396595E-001	7,4526016E+001	5,0277704E-001	1,197735522895487E+004	1,3580009E+001	6,8720979E-006	-3,2944038E+007	-2,5367126E+003	1,000000000000000E+000	3,5490593E-004	4,7621752E-006	0	14	2,268767139282532E-005	1,2620092E+001	4,6945445E-002	-1,2559208E+001	9,8579834E+003	9,6220996E+003	2,1436025E+003	-1,2462029E+001	9,9305957E+003	9,6966230E+003	2,1429485E+003	0,0000000E+000	1,3417616E-002	-1,1774415E-004	1,3418133E-002	-5,0277704E-001	1,907471252376978E-005
5,0018891E-003	3,7275921E+001	-3,1196135E+001	4,8607540E+001	3,9925888E+001	1,239869724896754E+004	1,3579859E+001	5,7805964E-006	-1,0199651E+006	-4,2012600E+005	1,000000000000000E+000	2,3144897E-004	4,7615858E-006	0	14	4,610838086927813E-005	1,2639175E+001	4,7788657E-002	-1,2530292E+001	1,0036290E+004	9,7972402E+003	2,1774307E+003	-1,2310918E+001	1,0065984E+004	9,8345166E+003	2,1462346E+003	0,0000000E+000	1,5776878E-002	-1,3203635E-002	2,0572940E-002	-3,9925888E+001	2,342070947645281E-005