File: SAMPLE-MPT/20220309_SSB_Cell_03_Form01/20220309_(Form02C)EIS_charging_10bis16V_step_01V+(1C+EIS)50cycle_03_GEIS_C08.mpt
EC-Lab ASCII FILE
Nb header lines : 72

Galvano Electrochemical Impedance Spectroscopy

Run on channel : 8 (SN 14384)
User :
CE vs. WE compliance from -10 V to 10 V
Electrode connection : standard
Potential control : Ewe-Ece
Ewe ctrl range : min = 0,00 V, max = 5,00 V
Safety Limits :
	Do not start on E overload
Acquisition started on : 03/09/2022 13:55:05.456
Technique started on : 03/09/2022 15:50:44.789
Loaded Setting File :  C:\DATA\x_Data_VMP3\Extern\InES\Binbin\001_Testing_Profiles\20220308_(Form02C)EIS_charging_10bis16V_step_01V+(1C+EIS)50cycle.mps
Saved on :
	File : 20220309_(Form02C)EIS_charging_10bis16V_step_01V+(1C+EIS)50cycle_03_GEIS_C08.mpr
	Directory : C:\DATA\x_Data_VMP3\Extern\InES\Binbin\20220309_SSB_Cell_03_Form01\
	Host : 134.169.45.143
Device : VMP3 (SN 0787)
Address : 134.169.45.150
EC-Lab for windows v11.42 (software)
Internet server v11.40 (firmware)
Command interpretor v11.40 (firmware)
Electrode material :
Initial state :
Electrolyte :
Comments :
Electrode surface area : 0,000 cm²
Characteristic mass : 0,001 g
Equivalent Weight : 0,000 g/eq.
Density : 0,000 g/cm3
Volume (V) : 0,001 cm³
Record Ece
Record Power
Cycle Definition : Charge/Discharge alternance
Mode                Single sine
Is                  0,000
unit Is             µA
vs.                 <None>
tIs (h:m:s)         0:00:0,0000
record              0
dE (mV)             0,000
dt (s)              0,000
fi                  1,000
unit fi             MHz
ff                  5,000
unit ff             mHz
Nd                  6
Points              per decade
spacing             Logarithmic
Ia/Va               Ia
Ia                  5,000
unit  Ia            µA
va pourcent         0,10
pw                  0,10
Na                  2
corr                0
E range min (V)     0,000
E range max (V)     5,000
I Range             10 µA
Bandwidth           5
nc cycles           0
goto Ns'            0
nr cycles           0
inc. cycle          0

Number of loops : 1
Loop 0 from point number 0 to 49

freq/Hz	Re(Z)/Ohm	-Im(Z)/Ohm	|Z|/Ohm	Phase(Z)/deg	time/s	<Ewe>/V	<I>/mA	Cs/µF	Cp/µF	cycle number	|Ewe|/V	|I|/A	Ns	I Range	(Q-Qo)/mA.h	<Ece>/V	|Ece|/V	Phase(Zce)/deg	|Zce|/Ohm	Re(Zce)/Ohm	-Im(Zce)/Ohm	Phase(Zwe-ce)/deg	|Zwe-ce|/Ohm	Re(Zwe-ce)/Ohm	-Im(Zwe-ce)/Ohm	P/W	Re(Y)/Ohm-1	Im(Y)/Ohm-1	|Y|/Ohm-1	Phase(Y)/deg	dq/mA.h
1,0000186E+006	-3,1006136E+001	4,7326885E+001	5,6579277E+001	-1,2323075E+002	6,939333158023568E+003	1,3582730E+001	1,3592406E-005	3,3628240E-003	2,3529094E-003	1,000000000000000E+000	2,9323911E-004	5,1828006E-006	0	14	1,940321324005999E-009	1,2705966E+001	2,0236596E-004	4,2578869E+001	3,9045677E+001	2,8751154E+001	-2,6418480E+001	-9,6155586E+001	2,1029654E+001	-2,2549820E+000	2,0908405E+001	0,0000000E+000	-9,6857417E-003	1,4784040E-002	1,7674316E-002	1,2323075E+002	1,940321324005999E-009
6,7700600E+005	-1,5242216E+001	3,5356064E+001	3,8501640E+001	-1,1332117E+002	6,939849158048077E+003	1,3582797E+001	1,7111661E-005	6,6491133E-003	5,6070327E-003	1,000000000000000E+000	1,9687142E-004	5,1133256E-006	0	14	5,864229137848219E-009	1,2705285E+001	1,4085841E-004	1,3164300E+001	2,7547318E+001	2,6823400E+001	-6,2737417E+000	-6,8286522E+001	3,1303438E+001	1,1581184E+001	2,9082321E+001	0,0000000E+000	-1,0282286E-002	2,3850936E-002	2,5972920E-002	1,1332117E+002	3,923907813842220E-009
4,5833025E+005	-2,5867860E+000	3,4480206E+001	3,4577103E+001	-9,4290428E+001	6,940234158066363E+003	1,3582689E+001	1,5254665E-005	1,0070981E-002	1,0014615E-002	1,000000000000000E+000	1,8034359E-004	5,2156938E-006	0	14	6,717011058867683E-009	1,2707330E+001	1,2806614E-004	-2,7498739E+001	2,4553999E+001	2,1779913E+001	1,1337296E+001	-6,7271004E+001	4,9675140E+001	1,9193127E+001	4,5817501E+001	0,0000000E+000	-2,1636323E-003	2,8839827E-002	2,8920874E-002	9,4290428E+001	8,527819210194644E-010
3,1029172E+005	1,4754570E+001	3,3982704E+001	3,7047558E+001	-6,6530540E+001	6,940619158084650E+003	1,3582718E+001	1,4328813E-005	1,5093572E-002	1,2699561E-002	1,000000000000000E+000	1,8008547E-004	4,8609268E-006	0	14	2,895438598563437E-009	1,2704924E+001	1,8021576E-004	-4,5440372E+001	3,7074364E+001	2,6013269E+001	2,6416250E+001	-5,5981602E+001	7,2870094E+001	4,0767838E+001	6,0398956E+001	0,0000000E+000	1,0749971E-002	2,4759324E-002	2,6992332E-002	6,6530540E+001	-3,821572460304246E-009
2,1007459E+005	2,6937397E+001	1,2216273E+001	2,9578045E+001	-2,4394581E+001	6,941004158102936E+003	1,3582707E+001	1,8556064E-005	6,2016584E-002	1,0579043E-002	1,000000000000000E+000	1,4221879E-004	4,8082552E-006	0	14	4,447713068960487E-009	1,2707170E+001	2,5479207E-004	-4,9356731E+001	5,2990547E+001	3,4515259E+001	4,0208149E+001	-4,0467041E+001	8,0775917E+001	6,1452656E+001	5,2424423E+001	0,0000000E+000	3,0790498E-002	1,3963678E-002	3,3808861E-002	2,4394581E+001	1,552274470397050E-009
1,4222091E+005	1,9723866E+001	-4,1543112E+000	2,0156616E+001	1,1893994E+001	6,941258158115001E+003	1,3582735E+001	1,6357573E-005	-2,6937523E-001	-1,1442488E-002	1,000000000000000E+000	9,8472032E-005	4,8853453E-006	0	14	1,144196730191046E-008	1,2706247E+001	3,6888290E-004	-5,6098274E+001	7,5508049E+001	4,2116135E+001	6,2671337E+001	-4,3418503E+001	8,5137703E+001	6,1840000E+001	5,8517025E+001	0,0000000E+000	4,8546370E-002	-1,0225011E-002	4,9611501E-002	-1,1893994E+001	6,994254232949970E-009
9,6283031E+004	1,1332525E+001	-5,9815345E+000	1,2814245E+001	2,7825993E+001	6,941512158127065E+003	1,3582737E+001	1,8086572E-005	-2,7634892E-001	-6,0213923E-002	1,000000000000000E+000	6,1727471E-005	4,8170978E-006	0	14	7,685384040491448E-009	1,2707008E+001	4,9313513E-004	-5,6273438E+001	1,0237183E+002	5,6839920E+001	8,5142326E+001	-4,9265312E+001	1,0446967E+002	6,8172447E+001	7,9160789E+001	0,0000000E+000	6,9014542E-002	-3,6427263E-002	7,8038149E-002	-2,7825993E+001	-3,756583261419009E-009
6,5181484E+004	5,2001858E+000	-5,9165168E+000	7,8769984E+000	4,8686893E+001	6,941897158145352E+003	1,3582788E+001	1,8302630E-005	-4,1269553E-001	-2,3283082E-001	1,000000000000000E+000	3,8316157E-005	4,8643092E-006	0	14	4,829636309295893E-009	1,2705806E+001	6,3710473E-004	-5,5825531E+001	1,3097537E+002	7,3570801E+001	1,0835998E+002	-5,2442539E+001	1,2922667E+002	7,8770988E+001	1,0244346E+002	0,0000000E+000	8,3810292E-002	-9,5355250E-002	1,2695192E-001	-4,8686893E+001	-2,855747731195555E-009
4,4128563E+004	1,8722814E+000	-4,0003548E+000	4,4168172E+000	6,4919052E+001	6,942282158163638E+003	1,3582922E+001	1,6769165E-005	-9,0157497E-001	-7,3957121E-001	1,000000000000000E+000	2,1176596E-005	4,7945377E-006	0	14	7,629462974717979E-009	1,2707650E+001	8,0296380E-004	-5,5056229E+001	1,6747470E+002	9,5924866E+001	1,3728145E+002	-5,3730042E+001	1,6531223E+002	9,7797150E+001	1,3328110E+002	0,0000000E+000	9,5973700E-002	-2,0505938E-001	2,2640738E-001	-6,4919052E+001	2,799826665422086E-009
2,9876783E+004	4,2743254E-002	-2,5754216E+000	2,5757763E+000	8,9049171E+001	6,942667158181925E+003	1,3582956E+001	1,8753821E-005	-2,0684164E+000	-2,0678468E+000	1,000000000000000E+000	1,2194442E-005	4,7342783E-006	0	14	7,117079044746788E-009	1,2706087E+001	9,9961262E-004	-5,4091122E+001	2,1114362E+002	1,2383527E+002	1,7101593E+002	-5,3667721E+001	2,0908842E+002	1,2387801E+002	1,6844051E+002	0,0000000E+000	6,4424565E-003	-3,8817900E-001	3,8823247E-001	-8,9049171E+001	-5,123839299711911E-010
2,0227139E+004	3,8283558E+000	1,6009048E+000	4,1496029E+000	-2,2693235E+001	6,943052158200211E+003	1,3582910E+001	1,4879293E-005	4,9149623E+000	7,3154008E-001	1,000000000000000E+000	1,9552273E-005	4,7118419E-006	0	14	5,348080489473735E-009	1,2709174E+001	1,2547552E-003	-5,3667274E+001	2,6629825E+002	1,5777463E+002	2,1452721E+002	-5,3213856E+001	2,6986456E+002	1,6160298E+002	2,1612811E+002	0,0000000E+000	2,2233059E-001	9,2972055E-002	2,4098691E-001	2,2693235E+001	-1,768998555273053E-009
1,3695073E+004	1,7672617E+000	-3,0978124E+000	3,5664628E+000	6,0295803E+001	6,943437158218498E+003	1,3582850E+001	1,7625274E-005	-3,7514629E+000	-2,8303199E+000	1,000000000000000E+000	1,6822347E-005	4,7168155E-006	0	14	7,564978083059435E-009	1,2705766E+001	1,5944736E-003	-5,3117702E+001	3,3804028E+002	2,0288269E+002	2,7038834E+002	-5,2560665E+001	3,3663901E+002	2,0464995E+002	2,6729053E+002	0,0000000E+000	1,3893944E-001	-2,4354531E-001	2,8038988E-001	-6,0295803E+001	2,216897593585700E-009
9,2692256E+003	3,7701926E+000	-3,3204958E-001	3,7847865E+000	5,0331850E+000	6,943822158236784E+003	1,3582839E+001	1,6038817E-005	-5,1709908E+001	-3,9801264E-001	1,000000000000000E+000	1,7979957E-005	4,7505869E-006	0	14	1,237074253658142E-008	1,2707490E+001	2,0495260E-003	-5,2971043E+001	4,3142584E+002	2,5981265E+002	3,4442075E+002	-5,2546738E+001	4,3344312E+002	2,6358286E+002	3,4408868E+002	0,0000000E+000	2,6319692E-001	-2,3180360E-002	2,6421571E-001	-5,0331850E+000	4,805764453521988E-009
6,2722681E+003	9,9339616E-001	-1,2921821E+000	1,6298989E+000	5,2447849E+001	6,944207158255071E+003	1,3582664E+001	1,4242994E-005	-1,9636848E+001	-1,2342351E+001	1,000000000000000E+000	7,8325584E-006	4,8055485E-006	0	14	1,544910046132802E-008	1,2706648E+001	2,6192260E-003	-5,1994415E+001	5,4504205E+002	3,3560324E+002	4,2946628E+002	-5,1828369E+001	5,4463782E+002	3,3659665E+002	4,2817410E+002	0,0000000E+000	3,7393934E-001	-4,8640987E-001	6,1353499E-001	-5,2447849E+001	3,078357924746595E-009
4,2448467E+003	8,1510681E-001	1,4836383E+000	1,6928029E+000	-6,1215729E+001	6,944633158275305E+003	1,3582685E+001	1,1381320E-005	2,5271446E+001	1,9412138E+001	1,000000000000000E+000	8,2411188E-006	4,8683273E-006	0	14	1,229455928190267E-008	1,2708132E+001	3,3357490E-003	-5,1180305E+001	6,8519409E+002	4,2952878E+002	5,3385016E+002	-5,1204910E+001	6,8686108E+002	4,3034387E+002	5,3533380E+002	0,0000000E+000	2,8444722E-001	5,1774418E-001	5,9073621E-001	6,1215729E+001	-3,154541179425350E-009
2,8779956E+003	2,7145731E+000	2,0936930E+000	3,4281859E+000	-3,7642246E+001	6,945034158294351E+003	1,3582706E+001	5,4728798E-006	2,6412954E+001	9,8517694E+000	1,000000000000000E+000	1,5759295E-005	4,5969778E-006	0	14	1,059726938151723E-008	1,2708212E+001	3,9636623E-003	-4,9434864E+001	8,6223224E+002	5,6072003E+002	6,5500952E+002	-4,9388489E+001	8,6558838E+002	5,6343463E+002	6,5710321E+002	0,0000000E+000	2,3097917E-001	1,7814937E-001	2,9169947E-001	3,7642246E+001	-1,697289900385435E-009
1,9481171E+003	3,7575374E+000	4,1645494E+000	5,6091495E+000	-4,7941090E+001	6,945710158326459E+003	1,3582693E+001	6,7122651E-006	1,9617203E+001	1,0813818E+001	1,000000000000000E+000	2,7447568E-005	4,8933566E-006	0	14	1,616497132662036E-008	1,2704603E+001	5,2666645E-003	-4,7514721E+001	1,0762887E+003	7,2692621E+002	7,9371002E+002	-4,7516930E+001	1,0818977E+003	7,3068372E+002	7,9787457E+002	0,0000000E+000	1,1942886E-001	1,3236524E-001	1,7828014E-001	4,7941090E+001	5,567701945103131E-009
1,3187339E+003	-2,7081317E-001	2,1891685E+000	2,2058554E+000	-9,7052002E+001	6,946156158347643E+003	1,3582652E+001	6,6174712E-006	5,5129467E+001	5,4298531E+001	1,000000000000000E+000	1,0638564E-005	4,8228749E-006	0	14	1,561725754366863E-008	1,2701035E+001	6,3934266E-003	-4,5235115E+001	1,3256464E+003	9,3351917E+002	9,4121216E+002	-4,5309975E+001	1,3270111E+003	9,3324835E+002	9,4340131E+002	0,0000000E+000	-5,5656478E-002	4,4990945E-001	4,5333889E-001	9,7052002E+001	-5,477137829517355E-010
8,9299957E+002	4,0933948E+000	5,1956296E+000	6,6144123E+000	-5,1767071E+001	6,946601158368780E+003	1,3582767E+001	5,6277568E-006	3,4302891E+001	2,1165304E+001	1,000000000000000E+000	3,1696298E-005	4,7920053E-006	0	14	1,556191980950277E-008	1,2711138E+001	7,7203303E-003	-4,2821247E+001	1,6110856E+003	1,1816956E+003	1,0950763E+003	-4,2857677E+001	1,6176198E+003	1,1857889E+003	1,1002720E+003	0,0000000E+000	9,3562342E-002	1,1875603E-001	1,5118501E-001	5,1767071E+001	-5,533773416585771E-011
6,0441974E+002	5,3492179E+000	-1,0144075E+000	5,4445529E+000	1,0737870E+001	6,947046158389916E+003	1,3582604E+001	6,5932154E-006	-2,5957870E+002	-9,0109282E+000	1,000000000000000E+000	2,5997802E-005	4,7750113E-006	0	14	1,442796345829341E-008	1,2706448E+001	9,2642922E-003	-4,0209049E+001	1,9401613E+003	1,4816896E+003	1,2525260E+003	-4,0084412E+001	1,9435961E+003	1,4870388E+003	1,2515116E+003	0,0000000E+000	1,8045372E-001	-3,4220632E-002	1,8366981E-001	-1,0737870E+001	-1,133956351209362E-009
4,0908368E+002	7,3575377E-001	-8,0573994E-001	1,0911235E+000	4,7599529E+001	6,947491158411052E+003	1,3582630E+001	6,8544441E-006	-4,8285095E+002	-2,6330255E+002	1,000000000000000E+000	5,2027831E-006	4,7682811E-006	0	14	1,561470381429331E-008	1,2699713E+001	1,0948299E-002	-3,7361160E+001	2,2960684E+003	1,8249752E+003	1,3933397E+003	-3,7334042E+001	2,2961646E+003	1,8257109E+003	1,3925339E+003	0,0000000E+000	6,1799467E-001	-6,7677933E-001	9,1648656E-001	-4,7599529E+001	1,186740355999897E-009
2,7686047E+002	3,2258775E+000	1,7762771E+000	3,6825869E+000	-2,8838663E+001	6,947932158431999E+003	1,3582604E+001	6,7581677E-006	3,2362976E+002	7,5294609E+001	1,000000000000000E+000	1,7548982E-005	4,7653953E-006	0	14	1,494020629289455E-008	1,2716831E+001	1,2771427E-002	-3,4538185E+001	2,6800352E+003	2,2076750E+003	1,5194603E+003	-3,4530376E+001	2,6836995E+003	2,2109009E+003	1,5212366E+003	0,0000000E+000	2,3787120E-001	1,3097991E-001	2,7154824E-001	2,8838663E+001	-6,744975213987602E-010
1,8742110E+002	4,1518016E+000	1,7497499E+000	4,5054502E+000	-2,2852676E+001	6,948383158453420E+003	1,3582636E+001	5,8285323E-006	4,8531723E+002	7,3198341E+001	1,000000000000000E+000	2,1460248E-005	4,7631747E-006	0	14	2,252281261262270E-008	1,2700113E+001	1,4725939E-002	-3,1725256E+001	3,0916228E+003	2,6296707E+003	1,6257195E+003	-3,1712397E+001	3,0960745E+003	2,6338225E+003	1,6274692E+003	0,0000000E+000	2,0453151E-001	8,6198479E-002	2,2195341E-001	2,2852676E+001	7,582606319728156E-009
1,2699121E+002	1,2788112E+000	-7,5186777E+000	7,6266556E+000	8,0347244E+001	6,948822158474271E+003	1,3582624E+001	7,4646250E-006	-1,6668826E+002	-1,6200174E+002	1,000000000000000E+000	3,6317975E-005	4,7619792E-006	0	14	1,972672984646806E-008	1,2693257E+001	1,6813504E-002	-2,9084629E+001	3,5307805E+003	3,0855586E+003	1,7163158E+003	-2,8967833E+001	3,5282507E+003	3,0868374E+003	1,7087971E+003	0,0000000E+000	2,1985592E-002	-1,2926270E-001	1,3111907E-001	-8,0347244E+001	-2,796082766154642E-009
8,5907173E+001	3,4570580E+000	1,8774811E+001	1,9090437E+001	-7,9566833E+001	6,949263158495218E+003	1,3582681E+001	7,1418121E-006	9,8676819E+001	9,5440903E+001	1,000000000000000E+000	9,0908135E-005	4,7619724E-006	0	14	2,365151862562698E-008	1,2691173E+001	1,8902594E-002	-2,6170504E+001	3,9694885E+003	3,5625586E+003	1,7507186E+003	-2,6391077E+001	3,9809011E+003	3,5660156E+003	1,7694934E+003	0,0000000E+000	9,4858212E-003	5,1516205E-002	5,2382249E-002	7,9566833E+001	3,924788779158916E-009
5,8157570E+001	3,3873227E+000	7,9965529E+000	8,6844006E+000	-6,7042587E+001	6,949722158517019E+003	1,3582715E+001	6,6536732E-006	3,4222446E+002	2,9015964E+002	1,000000000000000E+000	4,1353163E-005	4,7617750E-006	0	14	2,121899155768385E-008	1,2699873E+001	2,1112124E-002	-2,3655058E+001	4,4336665E+003	4,0611392E+003	1,7789174E+003	-2,3732040E+001	4,4399814E+003	4,0645264E+003	1,7869139E+003	0,0000000E+000	4,4913501E-002	1,0602862E-001	1,1514900E-001	6,7042587E+001	-2,432527067943131E-009
3,9407314E+001	9,4803209E+000	4,3622172E-001	9,4903517E+000	-2,6345150E+000	6,950172158538393E+003	1,3582655E+001	8,3767136E-006	9,2584014E+003	1,9560772E+001	1,000000000000000E+000	4,5189758E-005	4,7616527E-006	0	14	1,584332669490449E-008	1,2722965E+001	2,3259426E-002	-2,1035536E+001	4,8847378E+003	4,5592090E+003	1,7533616E+003	-2,1000462E+001	4,8937441E+003	4,5686895E+003	1,7537979E+003	0,0000000E+000	1,0525880E-001	4,8433146E-003	1,0537017E-001	2,6345150E+000	-5,375664862779356E-009
2,6682035E+001	8,6111593E+000	5,0424161E+000	9,9788790E+000	-3,0351858E+001	6,950591158558294E+003	1,3582708E+001	4,6660243E-006	1,1829393E+003	3,0204825E+002	1,000000000000000E+000	4,7508613E-005	4,7609169E-006	0	14	1,797231638581328E-008	1,2694099E+001	2,5314571E-002	-1,8209814E+001	5,3171631E+003	5,0508716E+003	1,6616008E+003	-1,8232389E+001	5,3269189E+003	5,0594829E+003	1,6666432E+003	0,0000000E+000	8,6476505E-002	5,0637841E-002	1,0021166E-001	3,0351858E+001	2,128989690908786E-009
1,8042725E+001	4,7713251E+000	2,4631248E+000	5,3695927E+000	-2,7304365E+001	6,951081158581568E+003	1,3582653E+001	1,0609368E-005	3,5812246E+003	7,5356677E+002	1,000000000000000E+000	2,5571217E-005	4,7622266E-006	0	14	9,360456481444778E-009	1,2713263E+001	2,7182925E-002	-1,5462279E+001	5,7080288E+003	5,5014336E+003	1,5217828E+003	-1,5473330E+001	5,7132847E+003	5,5062051E+003	1,5242460E+003	0,0000000E+000	1,6548412E-001	8,5428685E-002	1,8623386E-001	2,7304365E+001	-8,611859904368498E-009
1,2226137E+001	6,2555208E+000	1,0499023E+001	1,2221335E+001	-5,9212700E+001	6,951449158599047E+003	1,3582699E+001	5,6064778E-006	1,2398866E+003	9,1504498E+002	1,000000000000000E+000	5,8203692E-005	4,7624658E-006	0	14	4,174609038632424E-008	1,2707770E+001	2,8700264E-002	-1,2907456E+001	6,0263457E+003	5,8740728E+003	1,3461469E+003	-1,2991352E+001	6,0347949E+003	5,8803281E+003	1,3566459E+003	0,0000000E+000	4,1881874E-002	7,0292920E-002	8,1824116E-002	5,9212700E+001	3,238563390487946E-008
8,2759562E+000	8,7542372E+000	-2,5511374E+000	9,1183863E+000	1,6247044E+001	6,951982158624363E+003	1,3582507E+001	9,6892500E-006	-7,5382075E+003	-5,9006494E+002	1,000000000000000E+000	4,3428085E-005	4,7626941E-006	0	14	-3,756526726375695E-009	1,2722163E+001	2,9995022E-002	-1,0706485E+001	6,2979106E+003	6,1882754E+003	1,1700121E+003	-1,0668931E+001	6,3060400E+003	6,1970298E+003	1,1674609E+003	0,0000000E+000	1,0528884E-001	-3,0683003E-002	1,0966853E-001	-1,6247044E+001	-4,550261711269994E-008
5,6043758E+000	1,2846551E+001	-3,5523517E+000	1,3328656E+001	1,5457283E+001	6,952381158643315E+003	1,3582556E+001	7,4608929E-006	-7,9942354E+003	-5,6785321E+002	1,000000000000000E+000	6,3474574E-005	4,7622634E-006	0	14	1,764095047387728E-008	1,2681351E+001	3,1035652E-002	-8,9118738E+000	6,5169961E+003	6,4383213E+003	1,0095812E+003	-8,8636122E+000	6,5291396E+003	6,4511680E+003	1,0060289E+003	0,0000000E+000	7,2312571E-002	-1,9996004E-002	7,5026318E-002	-1,5457283E+001	2,139747720025298E-008
3,7924759E+000	1,1057688E+001	-2,4662606E-001	1,1060438E+001	1,2776893E+000	6,952960158670816E+003	1,3582553E+001	5,3010181E-006	-1,7016034E+005	-8,4604141E+001	1,000000000000000E+000	5,2676176E-005	4,7625758E-006	0	14	7,581380711777936E-008	1,2685760E+001	3,1819478E-002	-7,4559541E+000	6,6811489E+003	6,6246592E+003	8,6697247E+002	-7,4415751E+000	6,6920811E+003	6,6357168E+003	8,6672583E+002	0,0000000E+000	9,0389855E-002	-2,0160177E-003	9,0412334E-002	-1,2776893E+000	5,817285664390207E-008
2,5682116E+000	1,1735722E+001	1,5001309E+000	1,1831211E+001	-7,2843900E+000	6,953802158710809E+003	1,3582609E+001	6,0631592E-006	4,1310473E+004	6,6414069E+002	1,000000000000000E+000	5,6339195E-005	4,7619128E-006	0	14	8,372169702748049E-008	1,2717633E+001	3,2551080E-002	-6,4023323E+000	6,8357153E+003	6,7930835E+003	7,6224646E+002	-6,4038568E+000	6,8475454E+003	6,8048193E+003	7,6374658E+002	0,0000000E+000	8,3840027E-002	1,0716939E-002	8,4522203E-002	7,2843900E+000	7,907889909701131E-009
1,7399776E+000	6,4330192E+000	-1,5579135E+000	6,6189752E+000	1,3613482E+001	6,955034158769326E+003	1,3582620E+001	7,8684070E-006	-5,8712840E+004	-3,2526572E+003	1,000000000000000E+000	3,1519696E-005	4,7620206E-006	0	14	7,975455511535125E-009	1,2741006E+001	3,3188622E-002	-5,7392678E+000	6,9694414E+003	6,9345054E+003	6,9695593E+002	-5,7212520E+000	6,9756865E+003	6,9409385E+003	6,9539801E+002	0,0000000E+000	1,4683627E-001	-3,5560008E-002	1,5108079E-001	-1,3613482E+001	-7,574624151594537E-008
1,1772907E+000	1,1024157E+000	1,1478267E+001	1,1531085E+001	-8,4513924E+001	6,956843158855248E+003	1,3582707E+001	7,2727730E-006	1,1777690E+004	1,1670042E+004	1,000000000000000E+000	5,4912758E-005	4,7621502E-006	0	14	-1,216374947373740E-007	1,2739843E+001	3,3832420E-002	-5,1973009E+000	7,1044419E+003	7,0752334E+003	6,4356061E+002	-5,2886567E+000	7,1065889E+003	7,0763359E+003	6,5503888E+002	0,0000000E+000	8,2909679E-003	8,6324871E-002	8,6722106E-002	8,4513924E+001	-1,296129502489091E-007
7,9621863E-001	1,4981392E+001	2,5198312E+000	1,5191829E+001	-9,5476341E+000	6,959508158981829E+003	1,3582472E+001	6,9881780E-006	7,9326148E+004	2,1824241E+003	1,000000000000000E+000	7,2343297E-005	4,7619874E-006	0	14	-2,183258276701407E-007	1,2717874E+001	3,4484707E-002	-5,0221629E+000	7,2416626E+003	7,2138613E+003	6,3394299E+002	-5,0316272E+000	7,2568071E+003	7,2288428E+003	6,3646283E+002	0,0000000E+000	6,4913057E-002	1,0918206E-002	6,5824859E-002	9,5476341E+000	-9,668833293276672E-008
5,3938830E-001	1,4418146E+001	2,4196796E+000	1,4619774E+001	-9,5267067E+000	6,963432159168209E+003	1,3582440E+001	8,5318152E-006	1,2194409E+005	3,3403745E+003	1,000000000000000E+000	6,9632268E-005	4,7628828E-006	0	14	-1,768264706373973E-007	1,2696424E+001	3,5183161E-002	-5,1052489E+000	7,3869468E+003	7,3576421E+003	6,5733148E+002	-5,1139736E+000	7,4015229E+003	7,3720601E+003	6,5975116E+002	0,0000000E+000	6,7457169E-002	1,1320785E-002	6,8400510E-002	9,5267067E+000	4,149935703274348E-008
3,6507010E-001	1,7697927E+001	-7,2355404E+000	1,9119877E+001	2,2236485E+001	6,969221159443172E+003	1,3582488E+001	7,3201491E-006	-6,0252199E+004	-8,6286855E+003	1,000000000000000E+000	9,1052621E-005	4,7621970E-006	0	14	1,391432003610223E-007	1,2678825E+001	3,5800118E-002	-5,4191079E+000	7,5175635E+003	7,4839639E+003	7,0996112E+002	-5,3516216E+000	7,5345039E+003	7,5016616E+003	7,0272559E+002	0,0000000E+000	4,8411913E-002	-1,9792506E-002	5,2301593E-002	-2,2236485E+001	3,159696709984196E-007
2,4724665E-001	6,5221753E+000	9,5145655E+000	1,1535412E+001	-5,5569607E+001	6,977761159848800E+003	1,3582163E+001	7,0334149E-006	6,7655133E+004	4,6026980E+004	1,000000000000000E+000	5,4933149E-005	4,7621315E-006	0	14	7,236879308568847E-007	1,2676179E+001	3,6445323E-002	-5,5087757E+000	7,6531533E+003	7,6178071E+003	7,3468903E+002	-5,5749269E+000	7,6605635E+003	7,6243291E+003	7,4420361E+002	0,0000000E+000	4,9014688E-002	7,1502753E-002	8,6689577E-002	5,5569607E+001	5,845447304958624E-007
1,6750640E-001	1,3641045E+001	-2,5419438E+000	1,3875863E+001	1,0555726E+001	6,990359160447173E+003	1,3582320E+001	7,1010854E-006	-3,7378578E+005	-1,2543960E+004	1,000000000000000E+000	6,6077890E-005	4,7620742E-006	0	14	1,345571889751991E-006	1,2693659E+001	3,7139114E-002	-5,7327213E+000	7,7989365E+003	7,7599316E+003	7,7902020E+002	-5,7041783E+000	7,8122563E+003	7,7735728E+003	7,7647827E+002	0,0000000E+000	7,0848003E-002	-1,3202189E-002	7,2067589E-002	-1,0555726E+001	6,218839588951066E-007
1,1320493E-001	1,3604948E+001	-1,6720018E+001	2,1555826E+001	5,0865021E+001	7,008992161332193E+003	1,3582258E+001	6,8106133E-006	-8,4084906E+004	-5,0589711E+004	1,000000000000000E+000	1,0264609E-004	4,7618723E-006	0	14	1,500882999550697E-006	1,2720599E+001	3,7965011E-002	-5,8553982E+000	7,9727065E+003	7,9311094E+003	8,1336102E+002	-5,7260842E+000	7,9845552E+003	7,9447144E+003	7,9664099E+002	0,0000000E+000	2,9279763E-002	-3,5983831E-002	4,6391170E-002	-5,0865021E+001	1,553111097987059E-007
7,6773763E-002	1,5446693E+001	4,6728697E+000	1,6138031E+001	-1,6831398E+001	7,036458162636758E+003	1,3582513E+001	6,8074987E-006	4,4363275E+005	3,7195453E+004	1,000000000000000E+000	7,6848431E-005	4,7619460E-006	0	14	5,408272177669143E-007	1,2748703E+001	3,8948353E-002	-5,7832184E+000	8,1790835E+003	8,1374541E+003	8,2416455E+002	-5,8048406E+000	8,1949229E+003	8,1529009E+003	8,2883740E+002	0,0000000E+000	5,9310891E-002	1,7942484E-002	6,1965428E-002	1,6831398E+001	-9,600557817837828E-007
5,1879965E-002	2,7396191E+001	3,1059549E+000	2,7571692E+001	-6,4681072E+000	7,077096164566959E+003	1,3582481E+001	6,9031516E-006	9,8770056E+005	1,2533974E+004	1,000000000000000E+000	1,3129825E-004	4,7620674E-006	0	14	-1,866952366716608E-006	1,2763336E+001	4,0216357E-002	-5,8317175E+000	8,4451465E+003	8,4014395E+003	8,5808618E+002	-5,8337884E+000	8,4727168E+003	8,4288359E+003	8,6119214E+002	0,0000000E+000	3,6038220E-002	4,0857173E-003	3,6269084E-002	6,4681072E+000	-2,407779584483523E-006
3,5195883E-002	1,7350998E+001	2,5489227E+001	3,0834362E+001	-5,5756142E+001	7,136990167411772E+003	1,3582604E+001	7,7375435E-006	1,7740734E+005	1,2123136E+005	1,000000000000000E+000	1,4683025E-004	4,7619033E-006	0	14	-5,343979740734413E-006	1,2761251E+001	4,1775141E-002	-5,8883777E+000	8,7727822E+003	8,7264941E+003	9,0000641E+002	-6,0419974E+000	8,7926885E+003	8,7438447E+003	9,2549561E+002	0,0000000E+000	1,8249650E-002	2,6809378E-002	3,2431349E-002	5,5756142E+001	-3,477027374017805E-006
2,3795672E-002	1,1019929E+001	-1,4779393E+001	1,8435545E+001	5,3290756E+001	7,225570171619096E+003	1,3582527E+001	6,8522236E-006	-4,5254894E+005	-2,9084847E+005	1,000000000000000E+000	8,7793502E-005	4,7621866E-006	0	14	-7,809364223987131E-006	1,2742569E+001	4,3360170E-002	-6,7359700E+000	9,1050967E+003	9,0422461E+003	1,0679752E+003	-6,6355772E+000	9,1143203E+003	9,0532656E+003	1,0531958E+003	0,0000000E+000	3,2424022E-002	-4,3485519E-002	5,4243039E-002	-5,3290756E+001	-2,465384483252718E-006
1,6098291E-002	1,9175370E+000	1,5824608E+001	1,5940363E+001	-8,3090904E+001	7,356496177837747E+003	1,3582468E+001	6,8137383E-006	6,2475163E+005	6,1571100E+005	1,000000000000000E+000	7,5908385E-005	4,7620238E-006	0	14	-5,736388850861456E-006	1,2716510E+001	4,4751570E-002	-7,5696936E+000	9,3975947E+003	9,3156982E+003	1,2379646E+003	-7,6637526E+000	9,4015938E+003	9,3176162E+003	1,2537892E+003	0,0000000E+000	7,5465306E-003	6,2278271E-002	6,2733829E-002	8,3090904E+001	2,072975373125675E-006
1,0915886E-002	-5,8428607E+000	-1,5852829E+001	1,6895302E+001	1,1023232E+002	7,549573187008413E+003	1,3582347E+001	6,8286845E-006	-9,1971738E+005	-8,0972213E+005	1,000000000000000E+000	8,0457554E-005	4,7621256E-006	0	14	4,493776203989126E-006	1,2700193E+001	4,5696162E-002	-8,4785061E+000	9,5957490E+003	9,4908799E+003	1,4147817E+003	-8,3899527E+000	9,5876445E+003	9,4850371E+003	1,3989290E+003	0,0000000E+000	-2,0468861E-002	-5,5536035E-002	5,9188053E-002	-1,1023232E+002	1,023016505485058E-005
7,3873415E-003	1,0595166E+001	-3,1900398E+001	3,3613880E+001	7,1626984E+001	7,834865200559056E+003	1,3582285E+001	7,7157083E-006	-6,7536081E+005	-6,0826213E+005	1,000000000000000E+000	1,6007037E-004	4,7620319E-006	0	14	2,360161939952387E-005	1,2703000E+001	4,6230659E-002	-8,8363934E+000	9,7081787E+003	9,5929521E+003	1,4913074E+003	-8,6408653E+000	9,7138037E+003	9,6035469E+003	1,4594070E+003	0,0000000E+000	9,3771415E-003	-2,8233115E-002	2,9749615E-002	-7,1626984E+001	1,910784319553475E-005
5,0018891E-003	4,5281216E+001	3,3820462E+000	4,5407341E+001	-4,2714806E+000	8,256207220571756E+003	1,3582067E+001	6,2227646E-006	9,4082000E+006	5,2193145E+004	1,000000000000000E+000	2,1621595E-004	4,7616959E-006	0	14	4,642637555050310E-005	1,2721161E+001	4,7129486E-002	-8,3088331E+000	9,8976260E+003	9,7937354E+003	1,4302936E+003	-8,2904110E+000	9,9429209E+003	9,8390166E+003	1,4336757E+003	0,0000000E+000	2,1961698E-002	1,6403154E-003	2,2022871E-002	4,2714806E+000	2,282475615097923E-005