File: SAMPLE-MPT/20220309_SSB_Cell_03_Form01/20220309_(Form02C)EIS_charging_10bis16V_step_01V+(1C+EIS)50cycle_09_GEIS_C08.mpt
EC-Lab ASCII FILE
Nb header lines : 72

Galvano Electrochemical Impedance Spectroscopy

Run on channel : 8 (SN 14384)
User :
CE vs. WE compliance from -10 V to 10 V
Electrode connection : standard
Potential control : Ewe-Ece
Ewe ctrl range : min = 0,00 V, max = 5,00 V
Safety Limits :
	Do not start on E overload
Acquisition started on : 03/09/2022 13:55:05.456
Technique started on : 03/09/2022 19:47:01.180
Loaded Setting File :  C:\DATA\x_Data_VMP3\Extern\InES\Binbin\001_Testing_Profiles\20220308_(Form02C)EIS_charging_10bis16V_step_01V+(1C+EIS)50cycle.mps
Saved on :
	File : 20220309_(Form02C)EIS_charging_10bis16V_step_01V+(1C+EIS)50cycle_09_GEIS_C08.mpr
	Directory : C:\DATA\x_Data_VMP3\Extern\InES\Binbin\20220309_SSB_Cell_03_Form01\
	Host : 134.169.45.143
Device : VMP3 (SN 0787)
Address : 134.169.45.150
EC-Lab for windows v11.42 (software)
Internet server v11.40 (firmware)
Command interpretor v11.40 (firmware)
Electrode material :
Initial state :
Electrolyte :
Comments :
Electrode surface area : 0,000 cm²
Characteristic mass : 0,001 g
Equivalent Weight : 0,000 g/eq.
Density : 0,000 g/cm3
Volume (V) : 0,001 cm³
Record Ece
Record Power
Cycle Definition : Charge/Discharge alternance
Mode                Single sine
Is                  0,000
unit Is             µA
vs.                 <None>
tIs (h:m:s)         0:00:0,0000
record              0
dE (mV)             0,000
dt (s)              0,000
fi                  1,000
unit fi             MHz
ff                  5,000
unit ff             mHz
Nd                  6
Points              per decade
spacing             Logarithmic
Ia/Va               Ia
Ia                  5,000
unit  Ia            µA
va pourcent         0,10
pw                  0,10
Na                  2
corr                0
E range min (V)     0,000
E range max (V)     5,000
I Range             10 µA
Bandwidth           5
nc cycles           0
goto Ns'            0
nr cycles           0
inc. cycle          0

Number of loops : 1
Loop 0 from point number 0 to 49

freq/Hz	Re(Z)/Ohm	-Im(Z)/Ohm	|Z|/Ohm	Phase(Z)/deg	time/s	<Ewe>/V	<I>/mA	Cs/µF	Cp/µF	cycle number	|Ewe|/V	|I|/A	Ns	I Range	(Q-Qo)/mA.h	<Ece>/V	|Ece|/V	Phase(Zce)/deg	|Zce|/Ohm	Re(Zce)/Ohm	-Im(Zce)/Ohm	Phase(Zwe-ce)/deg	|Zwe-ce|/Ohm	Re(Zwe-ce)/Ohm	-Im(Zwe-ce)/Ohm	P/W	Re(Y)/Ohm-1	Im(Y)/Ohm-1	|Y|/Ohm-1	Phase(Y)/deg	dq/mA.h
1,0000186E+006	-2,7970331E+001	4,4636696E+001	5,2676125E+001	-1,2207216E+002	2,111572362203675E+004	1,3576398E+001	1,0907258E-005	3,5654965E-003	2,5602153E-003	1,000000000000000E+000	2,7550521E-004	5,2301725E-006	0	14	2,246908740883353E-009	1,2337655E+001	1,9550434E-004	4,6871220E+001	3,7380093E+001	2,5554543E+001	-2,7280701E+001	-9,7924110E+001	1,7523315E+001	-2,4157887E+000	1,7355995E+001	0,0000000E+000	-1,0080219E-002	1,6086604E-002	1,8983932E-002	1,2207216E+002	2,246908740883353E-009
6,7700600E+005	-1,3692625E+001	3,5350842E+001	3,7910027E+001	-1,1117314E+002	2,111610862205504E+004	1,3576402E+001	1,5868172E-005	6,6500953E-003	5,7825474E-003	1,000000000000000E+000	2,0831538E-004	5,4949942E-006	0	14	2,074814553686287E-009	1,2336693E+001	1,5968995E-004	2,4972242E+001	2,9060987E+001	2,6344147E+001	-1,2268943E+001	-6,1272217E+001	2,6321758E+001	1,2651522E+001	2,3081898E+001	0,0000000E+000	-9,5274923E-003	2,4597535E-002	2,6378246E-002	1,1117314E+002	-1,720941871970656E-010
4,5833025E+005	-2,8704095E+000	3,8051430E+001	3,8159542E+001	-9,4313934E+001	2,111649362207332E+004	1,3576334E+001	1,4319437E-005	9,1257924E-003	9,0741562E-003	1,000000000000000E+000	2,0463820E-004	5,3627004E-006	0	14	4,504087907630745E-009	1,2337615E+001	1,3461120E-004	-2,8529701E-001	2,5101383E+001	2,5101072E+001	1,2498861E-001	-5,9787159E+001	4,4177383E+001	2,2230663E+001	3,8176418E+001	0,0000000E+000	-1,9712301E-003	2,6131520E-002	2,6205765E-002	9,4313934E+001	2,429273353944458E-009
3,1029172E+005	1,0904336E+001	3,5409801E+001	3,7050758E+001	-7,2883949E+001	2,111674762208539E+004	1,3576323E+001	1,5638354E-005	1,4485266E-002	1,3230591E-002	1,000000000000000E+000	1,6775113E-004	4,5276033E-006	0	14	1,672063116605690E-009	1,2336973E+001	1,5165984E-004	-1,8964123E+001	3,3496716E+001	3,1678589E+001	1,0885630E+001	-4,7391891E+001	6,2901291E+001	4,2582924E+001	4,6295433E+001	0,0000000E+000	7,9433750E-003	2,5794629E-002	2,6990000E-002	7,2883949E+001	-2,832024791025055E-009
2,1007459E+005	2,7349871E+001	1,3104614E+001	3,0327320E+001	-2,5601280E+001	2,111713262210367E+004	1,3576438E+001	1,5026742E-005	5,7812579E-002	1,0794505E-002	1,000000000000000E+000	1,4334430E-004	4,7265730E-006	0	14	-2,669315900069099E-009	1,2337415E+001	1,6806395E-004	-2,5930857E+001	3,5557255E+001	3,1977436E+001	1,5548696E+001	-2,5779148E+001	6,5884308E+001	5,9327309E+001	2,8653309E+001	0,0000000E+000	2,9736318E-002	1,4248074E-002	3,2973569E-002	2,5601280E+001	-4,341379016674789E-009
1,4222091E+005	1,8391645E+001	-4,1831036E+000	1,8861362E+001	1,2813698E+001	2,111738662211574E+004	1,3576438E+001	1,4480012E-005	-2,6752111E-001	-1,3158585E-002	1,000000000000000E+000	9,0469090E-005	4,7965300E-006	0	14	-2,278482009589627E-009	1,2338056E+001	2,0450771E-004	-3,9425995E+001	4,2636597E+001	3,2934448E+001	2,7077694E+001	-2,4039806E+001	5,6200806E+001	5,1326096E+001	2,2894590E+001	0,0000000E+000	5,1698089E-002	-1,1758516E-002	5,3018440E-002	-1,2813698E+001	3,908338904794721E-010
9,6283031E+004	8,4743490E+000	-7,6252913E+000	1,1399985E+001	4,1981152E+001	2,111764062212780E+004	1,3576394E+001	1,7826063E-005	-2,1677737E-001	-9,6988052E-002	1,000000000000000E+000	5,3856187E-005	4,7242329E-006	0	14	-1,912573095094356E-009	1,2336372E+001	2,6315943E-004	-4,6989830E+001	5,5704159E+001	3,7997375E+001	4,0732700E+001	-3,5466850E+001	5,7058933E+001	4,6471725E+001	3,3107410E+001	0,0000000E+000	6,5207534E-002	-5,8674295E-002	8,7719411E-002	-4,1981152E+001	3,659089144952708E-010
6,5181484E+004	5,0051031E+000	-8,3335581E+000	9,7210722E+000	5,9011135E+001	2,111802562214609E+004	1,3576428E+001	1,4228820E-005	-2,9299852E-001	-2,1532677E-001	1,000000000000000E+000	4,7076050E-005	4,8426809E-006	0	14	2,481799209186243E-009	1,2338657E+001	3,5720458E-004	-4,9266003E+001	7,3761742E+001	4,8133087E+001	5,5892761E+001	-4,1828857E+001	7,1313011E+001	5,3138191E+001	4,7559204E+001	0,0000000E+000	5,2964475E-002	-8,8186502E-002	1,0286931E-001	-5,9011135E+001	4,394372304280599E-009
4,4128563E+004	1,5703152E+000	-2,6413999E+000	3,0729275E+000	5,9268467E+001	2,111841062216437E+004	1,3576383E+001	1,5708543E-005	-1,3654197E+000	-1,0088576E+000	1,000000000000000E+000	1,4732168E-005	4,7941803E-006	0	14	5,214067976512224E-009	1,2336973E+001	4,4853316E-004	-5,0099483E+001	9,3557838E+001	6,0013290E+001	7,1773773E+001	-4,8305122E+001	9,2584152E+001	6,1583607E+001	6,9132370E+001	0,0000000E+000	1,6629617E-001	-2,7972388E-001	3,2542259E-001	-5,9268467E+001	2,732268767325981E-009
2,9876783E+004	8,9969236E-001	-9,8975623E-001	1,3375589E+000	4,7729038E+001	2,111879562218266E+004	1,3576361E+001	1,6417234E-005	-5,3821778E+000	-2,9470584E+000	1,000000000000000E+000	6,3304665E-006	4,7328508E-006	0	14	4,099215511890482E-009	1,2338537E+001	5,5907544E-004	-5,1692284E+001	1,1812657E+002	7,3224854E+001	9,2693085E+001	-5,1051113E+001	1,1791501E+002	7,4124542E+001	9,1703331E+001	0,0000000E+000	5,0288445E-001	-5,5322582E-001	7,4763066E-001	-4,7729038E+001	-1,114852464621742E-009
2,0227139E+004	-3,5653177E-001	-2,1039999E+000	2,1339939E+000	9,9617653E+001	2,111918062220095E+004	1,3576399E+001	1,9005724E-005	-3,7397275E+000	-3,6353402E+000	1,000000000000000E+000	1,0054076E-005	4,7113890E-006	0	14	7,521601740563710E-009	1,2336372E+001	7,0651917E-004	-5,1311371E+001	1,4995985E+002	9,3738075E+001	1,1705183E+002	-5,0910217E+001	1,4809834E+002	9,3381546E+001	1,1494784E+002	0,0000000E+000	-7,8291006E-002	-4,6201849E-001	4,6860492E-001	-9,9617653E+001	3,422386228673227E-009
1,3695073E+004	1,8309414E+000	-2,5745485E+000	3,1592162E+000	5,4580708E+001	2,111956562221923E+004	1,3576417E+001	1,3772393E-005	-4,5139289E+000	-2,9977691E+000	1,000000000000000E+000	1,4899188E-005	4,7161025E-006	0	14	6,295173744117872E-009	1,2338778E+001	9,0991362E-004	-5,0633751E+001	1,9293762E+002	1,2237556E+002	1,4916148E+002	-4,9724621E+001	1,9213272E+002	1,2420650E+002	1,4658693E+002	0,0000000E+000	1,8344918E-001	-2,5795409E-001	3,1653422E-001	-5,4580708E+001	-1,226427996445838E-009
9,2692256E+003	-1,6683713E+000	-1,6694870E+000	2,3602223E+000	1,3498085E+002	2,111995062223752E+004	1,3576421E+001	1,5731679E-005	-1,0284748E+001	-5,1458116E+000	1,000000000000000E+000	1,1210895E-005	4,7499316E-006	0	14	5,230826402339516E-009	1,2337214E+001	1,1638599E-003	-4,9936970E+001	2,4502666E+002	1,5770650E+002	1,8752792E+002	-4,9984737E+001	2,4267520E+002	1,5603813E+002	1,8585843E+002	0,0000000E+000	-2,9949313E-001	-2,9969341E-001	4,2368889E-001	-1,3498085E+002	-1,064347341778355E-009
6,2722681E+003	-1,3310580E+000	-2,3925195E+000	2,7378578E+000	1,1908900E+002	2,112033562225581E+004	1,3576290E+001	1,9254270E-005	-1,0605717E+001	-8,0989590E+000	1,000000000000000E+000	1,3162600E-005	4,8076272E-006	0	14	1,474171657167113E-008	1,2338497E+001	1,4670176E-003	-4,7379482E+001	3,0514380E+002	2,0662492E+002	2,2454149E+002	-4,7258141E+001	3,0248264E+002	2,0529387E+002	2,2214897E+002	0,0000000E+000	-1,7757230E-001	-3,1917858E-001	3,6524907E-001	-1,1908900E+002	9,510890169331612E-009
4,2448467E+003	1,4160645E+000	-4,5083652E+000	4,7255259E+000	7,2562645E+001	2,112076162227604E+004	1,3576256E+001	1,1520893E-005	-8,3164701E+000	-7,5696697E+000	1,000000000000000E+000	2,2997325E-005	4,8666170E-006	0	14	1,769719771552521E-008	1,2337895E+001	1,8324637E-003	-4,5265053E+001	3,7653748E+002	2,6501767E+002	2,6748105E+002	-4,4625427E+001	3,7435489E+002	2,6643375E+002	2,6297269E+002	0,0000000E+000	6,3413657E-002	-2,0189185E-001	2,1161667E-001	-7,2562645E+001	2,955481143854084E-009
2,8779956E+003	1,9622511E-001	-4,0715814E+000	4,0763068E+000	8,7240829E+001	2,112116262229509E+004	1,3576165E+001	5,7277671E-006	-1,3582099E+001	-1,3550627E+001	1,000000000000000E+000	1,8734307E-005	4,5959018E-006	0	14	1,943405220137922E-008	1,2339298E+001	2,1174278E-003	-4,2446457E+001	4,6072086E+002	3,3996976E+002	3,1094092E+002	-4,2054138E+001	4,5812845E+002	3,4016599E+002	3,0686932E+002	0,0000000E+000	1,1809219E-002	-2,4503569E-001	2,4532010E-001	-8,7240829E+001	1,736854485854006E-009
1,9481171E+003	6,7895651E-001	-1,0240518E+000	1,2286838E+000	5,6455227E+001	2,112183862232720E+004	1,3576298E+001	6,4263968E-006	-7,9778000E+001	-5,5417473E+001	1,000000000000000E+000	6,0129519E-006	4,8938155E-006	0	14	1,627034538842054E-008	1,2339940E+001	2,7115047E-003	-3,9264538E+001	5,5406763E+002	4,2897693E+002	3,5067041E+002	-3,9138088E+001	5,5394653E+002	4,2965588E+002	3,4964636E+002	0,0000000E+000	4,4974014E-001	-6,7833096E-001	8,1387901E-001	-5,6455227E+001	-3,163706812958681E-009
1,3187339E+003	1,5912043E+000	-1,7821834E+000	2,3891649E+000	4,8240253E+001	2,112228362234833E+004	1,3576341E+001	6,5394770E-006	-6,7719002E+001	-3,7681057E+001	1,000000000000000E+000	1,1526777E-005	4,8246047E-006	0	14	1,899571679531517E-008	1,2342666E+001	3,1314718E-003	-3,5713924E+001	6,4906287E+002	5,2700122E+002	3,7888303E+002	-3,5504276E+001	6,4931885E+002	5,2859241E+002	3,7710083E+002	0,0000000E+000	2,7876207E-001	-3,1221959E-001	4,1855627E-001	-4,8240253E+001	2,725371406894635E-009
8,9299957E+002	-2,1251786E-001	1,8862801E+000	1,8982140E+000	-9,6428123E+001	2,112272962236952E+004	1,3576325E+001	5,6661943E-006	9,4484970E+001	9,3300659E+001	1,000000000000000E+000	9,0969352E-006	4,7923654E-006	0	14	2,183330726253037E-008	1,2338176E+001	3,6154117E-003	-3,2645912E+001	7,5441071E+002	6,3522919E+002	4,0696362E+002	-3,2775105E+001	7,5525122E+002	6,3501666E+002	4,0884991E+002	0,0000000E+000	-5,8980025E-002	5,2349901E-001	5,2681100E-001	9,6428123E+001	2,837590467215201E-009
6,0441974E+002	1,7351855E+000	4,7158960E-001	1,7981284E+000	-1,5204616E+001	2,112317362239060E+004	1,3576311E+001	6,6148582E-006	5,5836383E+002	3,8406464E+001	1,000000000000000E+000	8,5882684E-006	4,7762264E-006	0	14	2,544897170085076E-008	1,2339540E+001	4,1053710E-003	-2,9796453E+001	8,5954279E+002	7,4590796E+002	4,2712424E+002	-2,9766321E+001	8,6128302E+002	7,4764313E+002	4,2759583E+002	0,0000000E+000	5,3666657E-001	1,4585550E-001	5,5613381E-001	1,5204616E+001	3,615664438320386E-009
4,0908368E+002	3,7041509E+000	-4,5787210E+000	5,8894329E+000	5,1027401E+001	2,112361962241179E+004	1,3576186E+001	5,6695580E-006	-8,4969643E+001	-5,1357655E+001	1,000000000000000E+000	2,8087667E-005	4,7691633E-006	0	14	2,573252116693286E-008	1,2341664E+001	4,6204501E-003	-2,6962950E+001	9,6881775E+002	8,6350714E+002	4,3927576E+002	-2,6622707E+001	9,7006030E+002	8,6721130E+002	4,3469702E+002	0,0000000E+000	1,0679273E-001	-1,3200708E-001	1,6979563E-001	-5,1027401E+001	2,835494660820990E-010
2,7686047E+002	-1,3287123E+000	2,7104995E+000	3,0186560E+000	-1,1611452E+002	2,112406062243273E+004	1,3575981E+001	5,9218260E-006	2,1208495E+002	1,7099416E+002	1,000000000000000E+000	1,4383492E-005	4,7648664E-006	0	14	2,783191550786847E-008	1,2334126E+001	5,1534222E-003	-2,4359140E+001	1,0815460E+003	9,8526465E+002	4,4608893E+002	-2,4518995E+001	1,0814578E+003	9,8393591E+002	4,4879944E+002	0,0000000E+000	-1,4581549E-001	2,9745558E-001	3,3127326E-001	1,1611452E+002	2,099394340935610E-009
1,8742110E+002	5,3937411E+000	2,1764593E+000	5,8163061E+000	-2,1974852E+001	2,112451162245416E+004	1,3575958E+001	6,3065959E-006	3,9016754E+002	5,4633335E+001	1,000000000000000E+000	2,7706386E-005	4,7635708E-006	0	14	2,236265107065568E-008	1,2341463E+001	5,6590065E-003	-2,2115755E+001	1,1879757E+003	1,1005706E+003	4,4724792E+002	-2,2115067E+001	1,1937920E+003	1,1059644E+003	4,4942438E+002	0,0000000E+000	1,5943937E-001	6,4336300E-002	1,7193043E-001	2,1974852E+001	-5,469264437212790E-009
1,2699121E+002	-2,5676205E+000	-9,6794720E+000	1,0014233E+001	1,0485638E+002	2,112495062247501E+004	1,3575830E+001	7,8665589E-006	-1,2947765E+002	-1,2096585E+002	1,000000000000000E+000	4,7687248E-005	4,7619474E-006	0	14	2,684472057596092E-008	1,2343708E+001	6,1954441E-003	-1,9854803E+001	1,3010316E+003	1,2236935E+003	4,4187939E+002	-1,9490685E+001	1,2953552E+003	1,2211259E+003	4,3219992E+002	0,0000000E+000	-2,5603266E-002	-9,6519776E-002	9,9857874E-002	-1,0485638E+002	4,482069505305239E-009
8,5907173E+001	-9,8522365E-001	1,3253257E+001	1,3289826E+001	-9,4251450E+001	2,112539162249595E+004	1,3575804E+001	8,4476223E-006	1,3978741E+002	1,3901917E+002	1,000000000000000E+000	6,3295884E-005	4,7627323E-006	0	14	2,428527788197243E-008	1,2344550E+001	6,6934815E-003	-1,7108124E+001	1,4053868E+003	1,3432003E+003	4,1343088E+002	-1,7635227E+001	1,4084036E+003	1,3422151E+003	4,2668414E+002	0,0000000E+000	-5,5782311E-003	7,5038478E-002	7,5245529E-002	9,4251450E+001	-2,559442693988485E-009
5,8157570E+001	-4,7360969E+000	8,6311350E+000	9,8451567E+000	-1,1875456E+002	2,112585062251776E+004	1,3575770E+001	6,5719391E-006	3,1706329E+002	2,4368933E+002	1,000000000000000E+000	4,6873542E-005	4,7610761E-006	0	14	2,800682582462994E-008	1,2343067E+001	7,1768495E-003	-1,5484725E+001	1,5074008E+003	1,4526846E+003	4,0244806E+002	-1,5849486E+001	1,5051714E+003	1,4479485E+003	4,1107919E+002	0,0000000E+000	-4,8862461E-002	8,9047693E-002	1,0157279E-001	1,1875456E+002	3,721547942657507E-009
3,9407314E+001	1,0666651E+001	1,4337845E+000	1,0762582E+001	-7,6556678E+000	2,112630062253913E+004	1,3575952E+001	7,6766037E-006	2,8168223E+003	4,9991280E+001	1,000000000000000E+000	5,1249448E-005	4,7618173E-006	0	14	3,533452789813257E-008	1,2336372E+001	7,5954585E-003	-1,3942685E+001	1,5950756E+003	1,5480802E+003	3,8433530E+002	-1,3900632E+001	1,6057738E+003	1,5587468E+003	3,8576907E+002	0,0000000E+000	9,2086323E-002	1,2378013E-002	9,2914507E-002	7,6556678E+000	7,327702073502629E-009
2,6682035E+001	6,2749181E+000	-1,3435783E+001	1,4828853E+001	6,4966003E+001	2,112671962255903E+004	1,3575938E+001	7,1798786E-006	-4,4395419E+002	-3,6445932E+002	1,000000000000000E+000	7,0564187E-005	4,7585736E-006	0	14	3,446777364312463E-008	1,2344590E+001	8,0114994E-003	-1,2640052E+001	1,6835927E+003	1,6427892E+003	3,6841284E+002	-1,2148102E+001	1,6868376E+003	1,6490641E+003	3,5497705E+002	0,0000000E+000	2,8535986E-002	-6,1100941E-002	6,7436099E-002	-6,4966003E+001	-8,667542550079423E-010
1,8042725E+001	2,6005888E+000	8,5041828E+000	8,8929291E+000	-7,2996307E+001	2,112720962258230E+004	1,3575963E+001	1,0173658E-005	1,0372548E+003	9,4855157E+002	1,000000000000000E+000	4,2339012E-005	4,7609751E-006	0	14	4,655623666338076E-008	1,2338898E+001	8,3870655E-003	-1,0689803E+001	1,7616277E+003	1,7310560E+003	3,2676736E+002	-1,0945306E+001	1,7657781E+003	1,7336566E+003	3,3527155E+002	0,0000000E+000	3,2883804E-002	1,0753328E-001	1,1244889E-001	7,2996307E+001	1,208846302025613E-008
1,2226137E+001	6,1015053E+000	-8,0113935E+000	1,0070292E+001	5,2706974E+001	2,112757762259978E+004	1,3575870E+001	7,0391816E-006	-1,6248856E+003	-1,0283827E+003	1,000000000000000E+000	4,7945337E-005	4,7610670E-006	0	14	1,617835820722273E-008	1,2337695E+001	8,7359427E-003	-9,8894291E+000	1,8348707E+003	1,8076064E+003	3,1513419E+002	-9,6109657E+000	1,8395275E+003	1,8137080E+003	3,0712280E+002	0,0000000E+000	6,0166232E-002	-7,8999415E-002	9,9301979E-002	-5,2706974E+001	-3,037787845615803E-008
8,2759562E+000	5,3202572E+000	9,8015130E-001	5,4097905E+000	-1,0438558E+001	2,112811062262510E+004	1,3575781E+001	9,4455527E-006	1,9620443E+004	6,4407166E+002	1,000000000000000E+000	2,5758924E-005	4,7615381E-006	0	14	6,435096882821907E-008	1,2337173E+001	9,0614930E-003	-9,0908508E+000	1,9030601E+003	1,8791558E+003	3,0068423E+002	-9,0946712E+000	1,9084684E+003	1,8844761E+003	3,0166440E+002	0,0000000E+000	1,8179072E-001	3,3491317E-002	1,8485004E-001	1,0438558E+001	4,817261062099635E-008
5,6043758E+000	1,3333000E+001	1,5746791E+000	1,3425666E+001	-6,7356524E+000	2,112850962264405E+004	1,3575747E+001	6,8775926E-006	1,8034361E+004	2,4809229E+002	1,000000000000000E+000	6,3933949E-005	4,7620692E-006	0	14	4,116975572896485E-008	1,2348159E+001	9,2963073E-003	-8,6055145E+000	1,9521571E+003	1,9301797E+003	2,9210223E+002	-8,5927439E+000	1,9655757E+003	1,9435127E+003	2,9367691E+002	0,0000000E+000	7,3970102E-002	8,7361559E-003	7,4484199E-002	6,7356524E+000	-2,318121309925422E-008
3,7924759E+000	-3,2975051E+000	-4,6252594E+000	5,6803665E+000	1,2548637E+002	2,112908862267155E+004	1,3575872E+001	6,5920917E-006	-9,0732148E+003	-6,0156240E+003	1,000000000000000E+000	2,7043805E-005	4,7609260E-006	0	14	-1,331196761035850E-008	1,2345793E+001	9,6897511E-003	-8,3433495E+000	2,0352661E+003	2,0137255E+003	2,9532693E+002	-8,2277660E+000	2,0313365E+003	2,0104280E+003	2,9070166E+002	0,0000000E+000	-1,0219574E-001	-1,4334528E-001	1,7604499E-001	-1,2548637E+002	-5,448172333932335E-008
2,5682116E+000	1,0782243E+001	1,8046916E+000	1,0932231E+001	-9,5018759E+000	2,112993062271154E+004	1,3575859E+001	6,0043171E-006	3,4338898E+004	9,3578210E+002	1,000000000000000E+000	5,2054496E-005	4,7615622E-006	0	14	-1,198424440966998E-008	1,2337855E+001	9,9932719E-003	-8,4908400E+000	2,0987380E+003	2,0757349E+003	3,0988141E+002	-8,4960794E+000	2,1096687E+003	2,0865171E+003	3,1168610E+002	0,0000000E+000	9,0217657E-002	1,5100294E-002	9,1472641E-002	9,5018759E+000	1,327723200688525E-009
1,7399776E+000	6,7004843E+000	-5,1329503E+000	8,4405966E+000	3,7454159E+001	2,113116262277006E+004	1,3575918E+001	7,4784143E-006	-1,7820070E+004	-6,5901792E+003	1,000000000000000E+000	4,0188126E-005	4,7612898E-006	0	14	7,398411352553719E-008	1,2331481E+001	1,0360341E-002	-9,1321850E+000	2,1759526E+003	2,1483721E+003	3,4535132E+002	-8,9711676E+000	2,1817622E+003	2,1550725E+003	3,4021835E+002	0,0000000E+000	9,4050236E-002	-7,2047807E-002	1,1847503E-001	-3,7454159E+001	8,596835793520718E-008
1,1772907E+000	6,3260251E-001	-8,0764551E+000	8,1011925E+000	8,5521355E+001	2,113297162285598E+004	1,3575837E+001	7,3252904E-006	-1,6738467E+004	-1,6636398E+004	1,000000000000000E+000	3,8573988E-005	4,7615194E-006	0	14	2,076870947151343E-007	1,2332563E+001	1,0733375E-002	-9,4212761E+000	2,2541912E+003	2,2237854E+003	3,6899374E+002	-9,2160683E+000	2,2535076E+003	2,2244180E+003	3,6091730E+002	0,0000000E+000	9,6390173E-003	-1,2306170E-001	1,2343862E-001	-8,5521355E+001	1,337029811895971E-007
7,9621863E-001	-7,3377934E+000	4,6595860E+000	8,6922350E+000	-1,4758397E+002	2,113563662298257E+004	1,3575748E+001	7,1363779E-006	4,2898340E+004	1,2327421E+004	1,000000000000000E+000	4,1386476E-005	4,7613157E-006	0	14	3,011050937232685E-007	1,2337415E+001	1,1208820E-002	-9,3454170E+000	2,3541436E+003	2,3228977E+003	3,8228000E+002	-9,4867067E+000	2,3476667E+003	2,3155598E+003	3,8693958E+002	0,0000000E+000	-9,7118631E-002	6,1671484E-002	1,1504521E-001	1,4758397E+002	9,341799900813421E-008
5,3938830E-001	4,9361420E+000	4,1594939E+000	6,4549894E+000	-4,0119530E+001	2,113956062316895E+004	1,3575749E+001	6,2608942E-006	7,0937867E+004	2,9455609E+004	1,000000000000000E+000	3,0737403E-005	4,7618055E-006	0	14	2,508259039849337E-007	1,2348159E+001	1,1671845E-002	-9,5636272E+000	2,4511384E+003	2,4170718E+003	4,0723895E+002	-9,6401615E+000	2,4566992E+003	2,4220078E+003	4,1139844E+002	0,0000000E+000	1,1846678E-001	9,9827327E-002	1,5491892E-001	4,0119530E+001	-5,027918973833482E-008
3,6507010E-001	-2,5521653E+000	1,3799383E+001	1,4033407E+001	-1,0047832E+002	2,114534962344391E+004	1,3575796E+001	6,9002162E-006	3,1592514E+004	3,0547611E+004	1,000000000000000E+000	6,6821020E-005	4,7615677E-006	0	14	-6,267972240662958E-008	1,2356458E+001	1,2304028E-002	-9,3611984E+000	2,5840288E+003	2,5496162E+003	4,2031247E+002	-9,6723328E+000	2,5837932E+003	2,5470640E+003	4,3411185E+002	0,0000000E+000	-1,2959328E-002	7,0070207E-002	7,1258530E-002	1,0047832E+002	-3,135056263915632E-007
2,4724665E-001	1,0161604E+001	4,6394343E+000	1,1170610E+001	-2,4539787E+001	2,115388962384954E+004	1,3575861E+001	7,1784903E-006	1,3874734E+005	2,3933209E+004	1,000000000000000E+000	5,3185915E-005	4,7612361E-006	0	14	-6,093424481132387E-007	1,2359303E+001	1,3174587E-002	-9,4475727E+000	2,7670518E+003	2,7295200E+003	4,5419788E+002	-9,5075645E+000	2,7778386E+003	2,7396816E+003	4,5883731E+002	0,0000000E+000	8,1434503E-002	3,7180156E-002	8,9520626E-002	2,4539787E+001	-5,466627257066092E-007
1,6750640E-001	1,4552297E+001	1,2917422E+001	1,9458395E+001	-4,1594028E+001	2,116648762444791E+004	1,3575877E+001	6,8612603E-006	7,3555109E+004	3,2415338E+004	1,000000000000000E+000	9,2643837E-005	4,7611243E-006	0	14	-1,133033882511806E-006	1,2355616E+001	1,4336493E-002	-1,0267164E+001	3,0111570E+003	2,9629404E+003	5,3670361E+002	-1,0458608E+001	3,0277957E+003	2,9774927E+003	5,4962103E+002	0,0000000E+000	3,8434170E-002	3,4116291E-002	5,1391698E-002	4,1594028E+001	-5,236914343985670E-007
1,1320493E-001	-9,1346045E+000	-1,9867109E+001	2,1866482E+001	1,1469228E+002	2,118512062533293E+004	1,3575929E+001	6,9110943E-006	-7,0765258E+004	-5,8415977E+004	1,000000000000000E+000	1,0410944E-004	4,7611429E-006	0	14	-1,115908450616959E-006	1,2351085E+001	1,5626509E-002	-1,2114392E+001	3,2820920E+003	3,2090017E+003	6,8879352E+002	-1,1807537E+001	3,2690386E+003	3,1998672E+003	6,6892639E+002	0,0000000E+000	-1,9104335E-002	-4,1550558E-002	4,5732096E-002	-1,1469228E+002	1,712543189484631E-008
7,6773763E-002	3,6471033E+000	-1,5367194E+001	1,5794050E+001	7,6648979E+001	2,121258662663749E+004	1,3576337E+001	6,7920992E-006	-1,3490023E+005	-1,2770704E+005	1,000000000000000E+000	7,5198892E-005	4,7612166E-006	0	14	6,760565780460739E-008	1,2344310E+001	1,6790574E-002	-1,4302618E+001	3,5265303E+003	3,4172236E+003	8,7120563E+002	-1,4046028E+001	3,5263035E+003	3,4208708E+003	8,5583844E+002	0,0000000E+000	1,4620458E-002	-6,1603807E-002	6,3314982E-002	-7,6648979E+001	1,183514108421567E-006
5,1879965E-002	2,2424322E+001	-6,3221717E+000	2,3298500E+001	1,5744931E+001	2,125322462856770E+004	1,3576411E+001	6,7016704E-006	-4,8523731E+005	-3,5729820E+004	1,000000000000000E+000	1,1092570E-004	4,7610661E-006	0	14	2,688169056996306E-006	1,2343789E+001	1,7943634E-002	-1,5712345E+001	3,7688269E+003	3,6279988E+003	1,0206279E+003	-1,5528473E+001	3,7887207E+003	3,6504231E+003	1,0143058E+003	0,0000000E+000	4,1310783E-002	-1,1646900E-002	4,2921219E-002	-1,5744931E+001	2,620563399191699E-006
3,5195883E-002	1,6737667E+001	-3,2000728E+000	1,7040833E+001	1,0823753E+001	2,131311863141251E+004	1,3576666E+001	6,6746129E-006	-1,4130854E+006	-4,9831789E+004	1,000000000000000E+000	8,1133316E-005	4,7611125E-006	0	14	6,280440285377002E-006	1,2353089E+001	1,9295033E-002	-1,5826233E+001	4,0526313E+003	3,8990093E+003	1,1052367E+003	-1,5718575E+001	4,0678689E+003	3,9157468E+003	1,1020366E+003	0,0000000E+000	5,7638586E-002	-1,1019915E-002	5,8682580E-002	-1,0823753E+001	3,592271228380696E-006
2,3795672E-002	3,1573339E+001	1,5021870E+001	3,4964729E+001	-2,5444033E+001	2,140169863561983E+004	1,3576993E+001	6,7438182E-006	4,4524409E+005	8,2183719E+004	1,000000000000000E+000	1,6647266E-004	4,7611597E-006	0	14	8,643008459867689E-006	1,2373215E+001	2,1225384E-002	-1,4760343E+001	4,4580278E+003	4,3109126E+003	1,1358008E+003	-1,4843015E+001	4,4923911E+003	4,3424858E+003	1,1508226E+003	0,0000000E+000	2,5826178E-002	1,2287503E-002	2,8600249E-002	2,5444033E+001	2,362568174490687E-006
1,6098291E-002	3,9820461E+001	7,2565842E+000	4,0476254E+001	-1,0327826E+001	2,153262464183848E+004	1,3576706E+001	6,6820471E-006	1,3624110E+006	4,3789699E+004	1,000000000000000E+000	1,9271611E-004	4,7612139E-006	0	14	6,327078537697288E-006	1,2397470E+001	2,4000812E-002	-1,3249102E+001	5,0409019E+003	4,9067275E+003	1,1552998E+003	-1,3225842E+001	5,0813257E+003	4,9465479E+003	1,1625564E+003	0,0000000E+000	2,4305562E-002	4,4292645E-003	2,4705844E-002	1,0327826E+001	-2,315929922170401E-006
1,0915886E-002	1,7806107E+001	1,6813726E+001	2,4489975E+001	-4,3358063E+001	2,172570165100915E+004	1,3576225E+001	6,7498058E-006	8,6715581E+005	4,0874122E+005	1,000000000000000E+000	1,1660074E-004	4,7611620E-006	0	14	-3,827463509052980E-006	1,2423569E+001	2,7788920E-002	-1,1924734E+001	5,8365835E+003	5,7106294E+003	1,2059933E+003	-1,2049662E+001	5,8574937E+003	5,7284355E+003	1,2228070E+003	0,0000000E+000	2,9688776E-002	2,8034145E-002	4,0833034E-002	4,3358063E+001	-1,015454204675027E-005
7,3873415E-003	1,0470960E+001	1,8411978E+001	2,1181170E+001	-6,0372952E+001	2,201099366455979E+004	1,3576647E+001	6,6981579E-006	1,1701230E+006	8,8416338E+005	1,000000000000000E+000	1,0084708E-004	4,7611666E-006	0	14	-2,172598891276569E-005	1,2438442E+001	3,1996548E-002	-1,1752213E+001	6,7203169E+003	6,5794429E+003	1,3687913E+003	-1,1887433E+001	6,7343374E+003	6,5899141E+003	1,3872032E+003	0,0000000E+000	2,3339236E-002	4,1039363E-002	4,7211748E-002	6,0372952E+001	-1,789852540371271E-005
5,0018891E-003	6,3604975E+000	-1,6737181E+001	1,7905003E+001	6,9192108E+001	2,243233568457246E+004	1,3576318E+001	7,2014705E-006	-1,9010946E+006	-1,6611911E+006	1,000000000000000E+000	8,5243293E-005	4,7608646E-006	0	14	-4,140819378536919E-005	1,2436799E+001	3,6109544E-002	-1,2233617E+001	7,5846611E+003	7,4124268E+003	1,6071763E+003	-1,2099918E+001	7,5873511E+003	7,4187871E+003	1,5904391E+003	0,0000000E+000	1,9840026E-002	-5,2207574E-002	5,5850312E-002	-6,9192108E+001	-1,968220487260350E-005