File: SAMPLE-MPT/20220309_SSB_Cell_03_Form01/20220309_(Form02C)EIS_charging_10bis16V_step_01V+(1C+EIS)50cycle_04_GCPL6_C08.mpt
EC-Lab ASCII FILE
Nb header lines : 76

Galvanostatic Cycling with Potential Limitation 6

Run on channel : 8 (SN 14384)
User :
CE vs. WE compliance from -10 V to 10 V
Electrode connection : standard
Potential control : Ewe-Ece
Ecell ctrl range : min = 0,00 V, max = 5,00 V
Safety Limits :
	Do not start on E overload
Acquisition started on : 03/09/2022 13:55:05.456
Technique started on : 03/09/2022 16:12:41.714
Loaded Setting File :  C:\DATA\x_Data_VMP3\Extern\InES\Binbin\001_Testing_Profiles\20220308_(Form02C)EIS_charging_10bis16V_step_01V+(1C+EIS)50cycle.mps
Saved on :
	File : 20220309_(Form02C)EIS_charging_10bis16V_step_01V+(1C+EIS)50cycle_04_GCPL6_C08.mpr
	Directory : C:\DATA\x_Data_VMP3\Extern\InES\Binbin\20220309_SSB_Cell_03_Form01\
	Host : 134.169.45.143
Device : VMP3 (SN 0787)
Address : 134.169.45.150
EC-Lab for windows v11.42 (software)
Internet server v11.40 (firmware)
Command interpretor v11.40 (firmware)
Electrode material :
Initial state :
Electrolyte :
Comments :
Electrode surface area : 0,000 cm²
Characteristic mass : 0,001 g
Equivalent Weight : 0,000 g/eq.
Density : 0,000 g/cm3
Volume (V) : 0,001 cm³
Record Ece
Record Power
Cycle Definition : Charge/Discharge alternance
Ns                  0                   1
Set I/C             I                   I
Is                  0,000               20,000
unit Is             mA                  µA
vs.                 <None>              <None>
N                   1,00                1,00
I sign              > 0                 > 0
t1 (h:m:s)          0:00:0,0000         20:00:0,0000
I Range             100 µA              100 µA
Bandwidth           5                   5
dE1 (mV)            0,00                0,00
dt1 (s)             0,0000              5,0000
EM (V)              0,000               1,100
tM (h:m:s)          0:00:0,0000         10:00:0,0000
Im                  0,000               10,000
unit Im             mA                  µA
dI/dt               0,000               0,000
dunit dI/dt         mA/s                mA/s
E range min (V)     0,000               0,000
E range max (V)     5,000               5,000
dq                  0,000               1,000
unit dq             mA.h                mA.h
dtq (s)             0,0000              120,0000
dQM                 0,000               0,000
unit dQM            mA.h                mA.h
dxM                 0,000               0,000
delta SoC (%)       pass                pass
tR (h:m:s)          0:00:10,0000        0:01:0,0000
dER/dt (mV/h)       0,0                 0,1
dER (mV)            0,00                0,00
dtR (s)             1,0000              120,0000
EL (V)              pass                pass
goto Ns'            0                   0
nc cycles           0                   0

Number of loops : 1
Loop 0 from point number 0 to 85

mode	ox/red	error	control changes	Ns changes	counter inc.	Ns	time/s	dq/mA.h	(Q-Qo)/mA.h	control/V/mA	Ewe/V	I Range	Q charge/discharge/mA.h	half cycle	Ece/V	P/W	Energy charge/W.h	Energy discharge/W.h	Capacitance charge/µF	Capacitance discharge/µF	<I>/mA	Q discharge/mA.h	Q charge/mA.h	Capacity/mA.h	Efficiency/%	control/V	control/mA	cycle number	 Ecell/V
3	1	0	1	0	0	0	8,256258020574125E+003	0,000000000000000E+000	0,000000000000000E+000	0,0000000E+000	1,0514146E+001	14	0,000000000000000E+000	0	1,3596090E+001	0,0000000E+000	0,000000000000000E+000	0,000000000000000E+000	0,000000000000000E+000	0,000000000000000E+000	0,000000000000000E+000	0,000000000000000E+000	0,000000000000000E+000	0,000000000000000E+000	0,0000000E+000	0,0000000E+000	0,0000000E+000	0,000000000000000E+000	-3,0819445E+000
3	1	0	1	0	0	0	8,257258020562018E+003	0,000000000000000E+000	0,000000000000000E+000	0,0000000E+000	1,4419449E+001	14	0,000000000000000E+000	0	1,3581799E+001	0,0000000E+000	0,000000000000000E+000	0,000000000000000E+000	0,000000000000000E+000	0,000000000000000E+000	0,000000000000000E+000	0,000000000000000E+000	0,000000000000000E+000	0,000000000000000E+000	0,0000000E+000	0,0000000E+000	0,0000000E+000	0,000000000000000E+000	8,3765030E-001
3	1	0	1	0	0	0	8,258258020549911E+003	0,000000000000000E+000	0,000000000000000E+000	0,0000000E+000	1,4418326E+001	14	0,000000000000000E+000	0	1,3581317E+001	0,0000000E+000	0,000000000000000E+000	0,000000000000000E+000	0,000000000000000E+000	0,000000000000000E+000	0,000000000000000E+000	0,000000000000000E+000	0,000000000000000E+000	0,000000000000000E+000	0,0000000E+000	0,0000000E+000	0,0000000E+000	0,000000000000000E+000	8,3700943E-001
3	1	0	1	0	0	0	8,259258020537804E+003	0,000000000000000E+000	0,000000000000000E+000	0,0000000E+000	1,4417164E+001	14	0,000000000000000E+000	0	1,3580916E+001	0,0000000E+000	0,000000000000000E+000	0,000000000000000E+000	0,000000000000000E+000	0,000000000000000E+000	0,000000000000000E+000	0,000000000000000E+000	0,000000000000000E+000	0,000000000000000E+000	0,0000000E+000	0,0000000E+000	0,0000000E+000	0,000000000000000E+000	8,3624744E-001
3	1	0	1	0	0	0	8,260258020525696E+003	0,000000000000000E+000	0,000000000000000E+000	0,0000000E+000	1,4416682E+001	14	0,000000000000000E+000	0	1,3580956E+001	0,0000000E+000	0,000000000000000E+000	0,000000000000000E+000	0,000000000000000E+000	0,000000000000000E+000	0,000000000000000E+000	0,000000000000000E+000	0,000000000000000E+000	0,000000000000000E+000	0,0000000E+000	0,0000000E+000	0,0000000E+000	0,000000000000000E+000	8,3572578E-001
3	1	0	1	0	0	0	8,261258020513589E+003	0,000000000000000E+000	0,000000000000000E+000	0,0000000E+000	1,4416001E+001	14	0,000000000000000E+000	0	1,3580836E+001	0,0000000E+000	0,000000000000000E+000	0,000000000000000E+000	0,000000000000000E+000	0,000000000000000E+000	0,000000000000000E+000	0,000000000000000E+000	0,000000000000000E+000	0,000000000000000E+000	0,0000000E+000	0,0000000E+000	0,0000000E+000	0,000000000000000E+000	8,3516502E-001
3	1	0	1	0	0	0	8,262258020501482E+003	0,000000000000000E+000	0,000000000000000E+000	0,0000000E+000	1,4415239E+001	14	0,000000000000000E+000	0	1,3580756E+001	0,0000000E+000	0,000000000000000E+000	0,000000000000000E+000	0,000000000000000E+000	0,000000000000000E+000	0,000000000000000E+000	0,000000000000000E+000	0,000000000000000E+000	0,000000000000000E+000	0,0000000E+000	0,0000000E+000	0,0000000E+000	0,000000000000000E+000	8,3448315E-001
3	1	0	1	0	0	0	8,263258020489375E+003	0,000000000000000E+000	0,000000000000000E+000	0,0000000E+000	1,4415560E+001	14	0,000000000000000E+000	0	1,3581077E+001	0,0000000E+000	0,000000000000000E+000	0,000000000000000E+000	0,000000000000000E+000	0,000000000000000E+000	0,000000000000000E+000	0,000000000000000E+000	0,000000000000000E+000	0,000000000000000E+000	0,0000000E+000	0,0000000E+000	0,0000000E+000	0,000000000000000E+000	8,3448315E-001
3	1	0	1	0	0	0	8,264258020477268E+003	0,000000000000000E+000	0,000000000000000E+000	0,0000000E+000	1,4415119E+001	14	0,000000000000000E+000	0	1,3581237E+001	0,0000000E+000	0,000000000000000E+000	0,000000000000000E+000	0,000000000000000E+000	0,000000000000000E+000	0,000000000000000E+000	0,000000000000000E+000	0,000000000000000E+000	0,000000000000000E+000	0,0000000E+000	0,0000000E+000	0,0000000E+000	0,000000000000000E+000	8,3388233E-001
3	1	0	1	0	0	0	8,265258020465160E+003	0,000000000000000E+000	0,000000000000000E+000	0,0000000E+000	1,4415079E+001	14	0,000000000000000E+000	0	1,3581438E+001	0,0000000E+000	0,000000000000000E+000	0,000000000000000E+000	0,000000000000000E+000	0,000000000000000E+000	0,000000000000000E+000	0,000000000000000E+000	0,000000000000000E+000	0,000000000000000E+000	0,0000000E+000	0,0000000E+000	0,0000000E+000	0,000000000000000E+000	8,3364105E-001
3	1	0	0	0	0	0	8,266257820453058E+003	0,000000000000000E+000	0,000000000000000E+000	2,0000001E-002	1,3581105E+001	13	0,000000000000000E+000	0	1,2748757E+001	0,0000000E+000	0,000000000000000E+000	0,000000000000000E+000	0,000000000000000E+000	0,000000000000000E+000	0,000000000000000E+000	0,000000000000000E+000	0,000000000000000E+000	0,000000000000000E+000	0,0000000E+000	0,0000000E+000	0,0000000E+000	0,000000000000000E+000	8,3234787E-001
1	1	0	0	1	0	1	8,266258220453048E+003	2,219382880462541E-009	2,219382880462541E-009	2,0000001E-002	1,0514146E+001	13	2,219382880462541E-009	0	1,0506271E+001	2,1001424E-004	2,333491530469583E-011	0,000000000000000E+000	0,000000000000000E+000	0,000000000000000E+000	1,997444642875983E-002	0,000000000000000E+000	2,219382880462541E-009	2,219382880462541E-009	0,0000000E+000	0,0000000E+000	2,0000001E-002	0,000000000000000E+000	7,8744888E-003
1	1	0	0	0	0	1	8,271258220392512E+003	2,786132988313006E-005	2,786354926601052E-005	2,0000001E-002	1,3582829E+001	13	2,786354926601052E-005	0	1,2569312E+001	2,7247370E-004	3,784590276758054E-007	0,000000000000000E+000	3,268788498246677E+001	0,000000000000000E+000	2,006015775872586E-002	0,000000000000000E+000	2,786354926601052E-005	2,786354926601052E-005	0,0000000E+000	0,0000000E+000	2,0000001E-002	0,000000000000000E+000	1,0135174E+000
1	1	0	0	0	0	1	8,276258220331976E+003	2,786161079019722E-005	5,572516005620774E-005	2,0000001E-002	1,3582589E+001	13	5,572516005620774E-005	0	1,2559610E+001	2,7247163E-004	7,568918400816366E-007	0,000000000000000E+000	6,537861602685850E+001	0,000000000000000E+000	2,006036001181666E-002	0,000000000000000E+000	5,572516005620774E-005	5,572516005620774E-005	0,0000000E+000	0,0000000E+000	2,0000001E-002	0,000000000000000E+000	1,0229788E+000
1	1	0	0	0	0	1	8,281258220271440E+003	2,786147746619665E-005	8,358663752240440E-005	2,0000001E-002	1,3580745E+001	13	8,358663752240438E-005	0	1,2551993E+001	2,7243333E-004	1,135271453722572E-006	0,000000000000000E+000	9,812561265996230E+001	0,000000000000000E+000	2,006026401853508E-002	0,000000000000000E+000	8,358663752240438E-005	8,358663752240438E-005	0,0000000E+000	0,0000000E+000	2,0000001E-002	0,000000000000000E+000	1,0287514E+000
1	1	0	0	0	0	1	8,286258220210904E+003	2,786125155486580E-005	1,114478890772702E-004	2,0000001E-002	1,3581667E+001	13	1,114478890772702E-004	0	1,2548345E+001	2,7244963E-004	1,513673693050939E-006	0,000000000000000E+000	1,307936891765986E+002	0,000000000000000E+000	2,006010136237491E-002	0,000000000000000E+000	1,114478890772702E-004	1,114478890772702E-004	0,0000000E+000	0,0000000E+000	2,0000001E-002	0,000000000000000E+000	1,0333223E+000
1	1	0	0	0	0	1	8,291258220150368E+003	2,786148956066205E-005	1,393093786379322E-004	2,0000001E-002	1,3582789E+001	13	1,393093786379322E-004	0	1,2545499E+001	2,7247446E-004	1,892110438711073E-006	0,000000000000000E+000	1,634317416360396E+002	0,000000000000000E+000	2,006027272655028E-002	0,000000000000000E+000	1,393093786379322E-004	1,393093786379322E-004	0,0000000E+000	0,0000000E+000	2,0000001E-002	0,000000000000000E+000	1,0372906E+000
1	1	0	0	0	0	1	8,296258220089832E+003	2,786162911024358E-005	1,671710077481758E-004	2,0000001E-002	1,3581225E+001	13	1,671710077481758E-004	0	1,2540447E+001	2,7244445E-004	2,270505503534830E-006	0,000000000000000E+000	1,962178089112550E+002	0,000000000000000E+000	2,006037320225020E-002	0,000000000000000E+000	1,671710077481758E-004	1,671710077481758E-004	0,0000000E+000	0,0000000E+000	2,0000001E-002	0,000000000000000E+000	1,0407782E+000
1	1	0	0	0	0	1	8,301258220029296E+003	2,786159788568815E-005	1,950326056338640E-004	2,0000001E-002	1,3581987E+001	13	1,950326056338640E-004	0	1,2538242E+001	2,7245944E-004	2,648921374432226E-006	0,000000000000000E+000	2,288636402666834E+002	0,000000000000000E+000	2,006035072057001E-002	0,000000000000000E+000	1,950326056338640E-004	1,950326056338640E-004	0,0000000E+000	0,0000000E+000	2,0000001E-002	0,000000000000000E+000	1,0437450E+000
1	1	0	0	0	0	1	8,306258219968760E+003	2,786157906459024E-005	2,228941846984542E-004	2,0000001E-002	1,3583030E+001	13	2,228941846984542E-004	0	1,2536438E+001	2,7248016E-004	3,027366031665206E-006	0,000000000000000E+000	2,614693459056081E+002	0,000000000000000E+000	2,006033716937936E-002	0,000000000000000E+000	2,228941846984542E-004	2,228941846984542E-004	0,0000000E+000	0,0000000E+000	2,0000001E-002	0,000000000000000E+000	1,0465918E+000
1	1	0	0	0	0	1	8,311258219908224E+003	2,786154457399001E-005	2,507557292724442E-004	2,0000001E-002	1,3582549E+001	13	2,507557292724442E-004	0	1,2533551E+001	2,7247018E-004	3,405796828708242E-006	0,000000000000000E+000	2,941988238151336E+002	0,000000000000000E+000	2,006031233614689E-002	0,000000000000000E+000	2,507557292724442E-004	2,507557292724442E-004	0,0000000E+000	0,0000000E+000	2,0000001E-002	0,000000000000000E+000	1,0489979E+000
1	1	0	0	0	0	1	8,316258219847688E+003	2,786163059746226E-005	2,786173598699065E-004	2,0000001E-002	1,3581507E+001	13	2,786173598699065E-004	0	1,2530184E+001	2,7245010E-004	3,784199752152098E-006	0,000000000000000E+000	3,269985291684017E+002	0,000000000000000E+000	2,006037427304766E-002	0,000000000000000E+000	2,786173598699065E-004	2,786173598699065E-004	0,0000000E+000	0,0000000E+000	2,0000001E-002	0,000000000000000E+000	1,0513229E+000
1	1	0	0	0	0	1	8,321258219787152E+003	2,786154697287000E-005	3,064789068427765E-004	2,0000001E-002	1,3582429E+001	13	3,064789068427765E-004	0	1,2528941E+001	2,7246779E-004	4,162627233851976E-006	0,000000000000000E+000	3,595900493818648E+002	0,000000000000000E+000	2,006031406334050E-002	0,000000000000000E+000	3,064789068427765E-004	3,064789068427765E-004	0,0000000E+000	0,0000000E+000	2,0000001E-002	0,000000000000000E+000	1,0534878E+000
1	1	0	0	0	0	1	8,326258219726617E+003	2,786149242168499E-005	3,343403992644615E-004	2,0000001E-002	1,3582950E+001	13	3,343403992644615E-004	0	1,2527578E+001	2,7247772E-004	4,541068482265459E-006	0,000000000000000E+000	3,922132273037649E+002	0,000000000000000E+000	2,006027478648682E-002	0,000000000000000E+000	3,343403992644615E-004	3,343403992644615E-004	0,0000000E+000	0,0000000E+000	2,0000001E-002	0,000000000000000E+000	1,0553713E+000
1	1	0	0	0	0	1	8,331258219666081E+003	2,786098400337829E-005	3,622013832678398E-004	2,0000001E-002	1,3581347E+001	13	3,622013832678398E-004	0	1,2524010E+001	2,7244055E-004	4,919458160176193E-006	0,000000000000000E+000	4,251189028709564E+002	0,000000000000000E+000	2,005990872530156E-002	0,000000000000000E+000	3,622013832678398E-004	3,622013832678398E-004	0,0000000E+000	0,0000000E+000	2,0000001E-002	0,000000000000000E+000	1,0573368E+000
1	1	0	0	0	0	1	8,336258219605545E+003	2,786139540136274E-005	3,900627786692025E-004	2,0000001E-002	1,3580665E+001	13	3,900627786692025E-004	0	1,2521645E+001	2,7243092E-004	5,297834427377001E-006	0,000000000000000E+000	4,579218659064113E+002	0,000000000000000E+000	2,006020493185396E-002	0,000000000000000E+000	3,900627786692025E-004	3,900627786692025E-004	0,0000000E+000	0,0000000E+000	2,0000001E-002	0,000000000000000E+000	1,0590200E+000
1	1	0	0	0	0	1	8,341258219545009E+003	2,786176916139407E-005	4,179245478305966E-004	2,0000001E-002	1,3582067E+001	13	4,179245478305966E-004	0	1,2521284E+001	2,7246273E-004	5,676254856507380E-006	0,000000000000000E+000	4,904063889100065E+002	0,000000000000000E+000	2,006047403907977E-002	0,000000000000000E+000	4,179245478305966E-004	4,179245478305966E-004	0,0000000E+000	0,0000000E+000	2,0000001E-002	0,000000000000000E+000	1,0607834E+000
1	1	0	0	0	0	1	8,346258219484473E+003	2,786206657439470E-005	4,457866144049913E-004	2,0000001E-002	1,3582870E+001	13	4,457866144049913E-004	0	1,2520442E+001	2,7248170E-004	6,054701671615871E-006	0,000000000000000E+000	5,229639354808055E+002	0,000000000000000E+000	2,006068817644282E-002	0,000000000000000E+000	4,457866144049913E-004	4,457866144049913E-004	0,0000000E+000	0,0000000E+000	2,0000001E-002	0,000000000000000E+000	1,0624275E+000
1	1	0	0	0	0	1	8,351258219423937E+003	2,786119785998017E-005	4,736478122649714E-004	2,0000001E-002	1,3582509E+001	13	4,736478122649714E-004	0	1,2518277E+001	2,7246599E-004	6,433126643437476E-006	0,000000000000000E+000	5,557139160967873E+002	0,000000000000000E+000	2,006006270205678E-002	0,000000000000000E+000	4,736478122649714E-004	4,736478122649714E-004	0,0000000E+000	0,0000000E+000	2,0000001E-002	0,000000000000000E+000	1,0642319E+000
1	1	0	0	0	0	1	8,356258219363401E+003	2,786082985003789E-005	5,015086421150093E-004	2,0000001E-002	1,3580745E+001	13	5,015086421150093E-004	0	1,2514628E+001	2,7242699E-004	6,811497461968669E-006	0,000000000000000E+000	5,887405477772771E+002	0,000000000000000E+000	2,005979773489514E-002	0,000000000000000E+000	5,015086421150093E-004	5,015086421150093E-004	0,0000000E+000	0,0000000E+000	2,0000001E-002	0,000000000000000E+000	1,0661163E+000
1	1	0	0	0	0	1	8,361258219302865E+003	2,786153402779665E-005	5,293701761428060E-004	2,0000001E-002	1,3582188E+001	13	5,293701761428059E-004	0	1,2514830E+001	2,7246281E-004	7,189918045423165E-006	0,000000000000000E+000	6,211560198468571E+002	0,000000000000000E+000	2,006030474288758E-002	0,000000000000000E+000	5,293701761428059E-004	5,293701761428059E-004	0,0000000E+000	0,0000000E+000	2,0000001E-002	0,000000000000000E+000	1,0673580E+000
1	1	0	0	0	0	1	8,366258219242329E+003	2,786215556443979E-005	5,572323317072458E-004	2,0000001E-002	1,3582669E+001	13	5,572323317072457E-004	0	1,2513907E+001	2,7247856E-004	7,568360489273174E-006	0,000000000000000E+000	6,537464858770022E+002	0,000000000000000E+000	2,006075224927606E-002	0,000000000000000E+000	5,572323317072457E-004	5,572323317072457E-004	0,0000000E+000	0,0000000E+000	2,0000001E-002	0,000000000000000E+000	1,0687618E+000
1	1	0	0	0	0	1	8,371258219181793E+003	2,786230894964602E-005	5,850946406568918E-004	2,0000001E-002	1,3580945E+001	13	5,850946406568918E-004	0	1,2510459E+001	2,7244547E-004	7,946756975107967E-006	0,000000000000000E+000	6,868205558469903E+002	0,000000000000000E+000	2,006086268662588E-002	0,000000000000000E+000	5,850946406568918E-004	5,850946406568918E-004	0,0000000E+000	0,0000000E+000	2,0000001E-002	0,000000000000000E+000	1,0704861E+000
1	1	0	0	0	0	1	8,376258219121257E+003	2,786151442262862E-005	6,129561550795204E-004	2,0000001E-002	1,3581747E+001	13	6,129561550795204E-004	0	1,2509898E+001	2,7245379E-004	8,325165016566840E-006	0,000000000000000E+000	7,193380141680667E+002	0,000000000000000E+000	2,006029062716642E-002	0,000000000000000E+000	6,129561550795204E-004	6,129561550795204E-004	0,0000000E+000	0,0000000E+000	2,0000001E-002	0,000000000000000E+000	1,0718489E+000
1	1	0	0	0	0	1	8,381258219060721E+003	2,786107895947579E-005	6,408172340389962E-004	2,0000001E-002	1,3582709E+001	13	6,408172340389962E-004	0	1,2509578E+001	2,7246884E-004	8,703593953204309E-006	0,000000000000000E+000	7,517987069950505E+002	0,000000000000000E+000	2,005997709369259E-002	0,000000000000000E+000	6,408172340389962E-004	6,408172340389962E-004	0,0000000E+000	0,0000000E+000	2,0000001E-002	0,000000000000000E+000	1,0731316E+000
1	1	0	0	0	0	1	8,386258219000185E+003	2,786107054145800E-005	6,686783045804542E-004	2,0000001E-002	1,3580825E+001	13	6,686783045804542E-004	0	1,2506089E+001	2,7243095E-004	9,081970272416782E-006	0,000000000000000E+000	7,849670264865957E+002	0,000000000000000E+000	2,005997103271971E-002	0,000000000000000E+000	6,686783045804542E-004	6,686783045804542E-004	0,0000000E+000	0,0000000E+000	2,0000001E-002	0,000000000000000E+000	1,0747356E+000
1	1	0	0	0	0	1	8,391258218939649E+003	2,786109912426521E-005	6,965394037047194E-004	2,0000001E-002	1,3581225E+001	13	6,965394037047194E-004	0	1,2505288E+001	2,7243927E-004	9,460358139381511E-006	0,000000000000000E+000	8,175666190944737E+002	0,000000000000000E+000	2,005999161234115E-002	0,000000000000000E+000	6,965394037047194E-004	6,965394037047194E-004	0,0000000E+000	0,0000000E+000	2,0000001E-002	0,000000000000000E+000	1,0759373E+000
1	1	0	0	0	0	1	8,396258218879113E+003	2,786109704213838E-005	7,244005007468578E-004	2,0000001E-002	1,3582188E+001	13	7,244005007468578E-004	0	1,2504847E+001	2,7245854E-004	9,838772787614795E-006	0,000000000000000E+000	8,500020441227182E+002	0,000000000000000E+000	2,005999011320981E-002	0,000000000000000E+000	7,244005007468578E-004	7,244005007468578E-004	0,0000000E+000	0,0000000E+000	2,0000001E-002	0,000000000000000E+000	1,0773411E+000
1	1	0	0	0	0	1	8,401258218818577E+003	2,786110281882187E-005	7,522616035656797E-004	2,0000001E-002	1,3582269E+001	13	7,522616035656796E-004	0	1,2503764E+001	2,7246022E-004	1,021718977279363E-005	0,000000000000000E+000	8,826705751637313E+002	0,000000000000000E+000	2,005999427242198E-002	0,000000000000000E+000	7,522616035656796E-004	7,522616035656796E-004	0,0000000E+000	0,0000000E+000	2,0000001E-002	0,000000000000000E+000	1,0785046E+000
1	1	0	0	0	0	1	8,406258218758041E+003	2,786094125215378E-005	7,801225448178335E-004	2,0000001E-002	1,3580985E+001	13	7,801225448178334E-004	0	1,2501119E+001	2,7243290E-004	1,059556879995507E-005	0,000000000000000E+000	9,157445048742421E+002	0,000000000000000E+000	2,005987794441955E-002	0,000000000000000E+000	7,801225448178334E-004	7,801225448178334E-004	0,0000000E+000	0,0000000E+000	2,0000001E-002	0,000000000000000E+000	1,0798664E+000
1	1	0	0	0	0	1	8,411258218697505E+003	2,786114249988976E-005	8,079836873177232E-004	2,0000001E-002	1,3582229E+001	13	8,079836873177231E-004	0	1,2501039E+001	2,7245982E-004	1,097398520813368E-005	0,000000000000000E+000	9,480647867085783E+002	0,000000000000000E+000	2,006002284279121E-002	0,000000000000000E+000	8,079836873177231E-004	8,079836873177231E-004	0,0000000E+000	0,0000000E+000	2,0000001E-002	0,000000000000000E+000	1,0811901E+000
1	1	0	0	0	0	1	8,416258218636969E+003	2,786107661926912E-005	8,358447639369923E-004	2,0000001E-002	1,3582709E+001	13	8,358447639369922E-004	0	1,2500277E+001	2,7246881E-004	1,135241411298480E-005	0,000000000000000E+000	9,806025484298602E+002	0,000000000000000E+000	2,005997540874377E-002	0,000000000000000E+000	8,358447639369922E-004	8,358447639369922E-004	0,0000000E+000	0,0000000E+000	2,0000001E-002	0,000000000000000E+000	1,0824327E+000
1	1	0	0	0	0	1	8,421258218576433E+003	2,786104191467166E-005	8,637058058516640E-004	2,0000001E-002	1,3582629E+001	13	8,637058058516638E-004	0	1,2498592E+001	2,7246686E-004	1,173084031454321E-005	0,000000000000000E+000	1,013315225702438E+003	0,000000000000000E+000	2,005995042143330E-002	0,000000000000000E+000	8,637058058516638E-004	8,637058058516638E-004	0,0000000E+000	0,0000000E+000	2,0000001E-002	0,000000000000000E+000	1,0840368E+000
1	1	0	0	0	0	1	8,426258218515897E+003	2,786106753980534E-005	8,915668733914693E-004	2,0000001E-002	1,3581667E+001	13	8,915668733914692E-004	0	1,2496708E+001	2,7244783E-004	1,210924005464032E-005	0,000000000000000E+000	1,046330455282697E+003	0,000000000000000E+000	2,005996887152977E-002	0,000000000000000E+000	8,915668733914692E-004	8,915668733914692E-004	0,0000000E+000	0,0000000E+000	2,0000001E-002	0,000000000000000E+000	1,0849590E+000
1	1	0	0	0	0	1	8,431258218455361E+003	2,786096745657010E-005	9,194278408480394E-004	2,0000001E-002	1,3581025E+001	13	9,194278408480393E-004	0	1,2494945E+001	2,7243397E-004	1,248762055363569E-005	0,000000000000000E+000	1,079253512446535E+003	0,000000000000000E+000	2,005989681159952E-002	0,000000000000000E+000	9,194278408480393E-004	9,194278408480393E-004	0,0000000E+000	0,0000000E+000	2,0000001E-002	0,000000000000000E+000	1,0860806E+000
1	1	0	0	0	0	1	8,436258218394825E+003	2,786110192495916E-005	9,472889427729986E-004	2,0000001E-002	1,3581225E+001	13	9,472889427729985E-004	0	1,2493902E+001	2,7243930E-004	1,286600845863727E-005	0,000000000000000E+000	1,111885148391141E+003	0,000000000000000E+000	2,005999362884082E-002	0,000000000000000E+000	9,472889427729985E-004	9,472889427729985E-004	0,0000000E+000	0,0000000E+000	2,0000001E-002	0,000000000000000E+000	1,0873232E+000
1	1	0	0	0	0	1	8,441258218334289E+003	2,786112639194148E-005	9,751500691649401E-004	2,0000001E-002	1,3580865E+001	13	9,751500691649400E-004	0	1,2492620E+001	2,7243231E-004	1,324438665230389E-005	0,000000000000000E+000	1,144721830018617E+003	0,000000000000000E+000	2,006001124506830E-002	0,000000000000000E+000	9,751500691649400E-004	9,751500691649400E-004	0,0000000E+000	0,0000000E+000	2,0000001E-002	0,000000000000000E+000	1,0882454E+000
1	1	0	0	0	0	1	8,446258218273753E+003	2,786105296160612E-005	1,003011122126546E-003	2,0000001E-002	1,3580665E+001	13	1,003011122126546E-003	0	1,2491015E+001	2,7242757E-004	1,362275826894520E-005	0,000000000000000E+000	1,177504621528082E+003	0,000000000000000E+000	2,005995837522620E-002	0,000000000000000E+000	1,003011122126546E-003	1,003011122126546E-003	0,0000000E+000	0,0000000E+000	2,0000001E-002	0,000000000000000E+000	1,0896492E+000
1	1	0	0	0	0	1	8,451258218213217E+003	2,786081127222213E-005	1,030871933398768E-003	2,0000001E-002	1,3580825E+001	13	1,030871933398768E-003	0	1,2490414E+001	2,7242841E-004	1,400113106706759E-005	0,000000000000000E+000	1,210149141531117E+003	0,000000000000000E+000	2,005978435886763E-002	0,000000000000000E+000	1,030871933398768E-003	1,030871933398768E-003	0,0000000E+000	0,0000000E+000	2,0000001E-002	0,000000000000000E+000	1,0904112E+000
1	1	0	0	0	0	1	8,456258218152681E+003	2,786106166057289E-005	1,058732995059341E-003	2,0000001E-002	1,3581347E+001	13	1,058732995059341E-003	0	1,2489613E+001	2,7244134E-004	1,437952179966760E-005	0,000000000000000E+000	1,242644092720318E+003	0,000000000000000E+000	2,005996463848235E-002	0,000000000000000E+000	1,058732995059341E-003	1,058732995059341E-003	0,0000000E+000	0,0000000E+000	2,0000001E-002	0,000000000000000E+000	1,0917339E+000
1	1	0	0	0	0	1	8,461258218092145E+003	2,786090310994122E-005	1,086593898169283E-003	2,0000001E-002	1,3582309E+001	13	1,086593898169282E-003	0	1,2489693E+001	2,7245909E-004	1,475793718829631E-005	0,000000000000000E+000	1,274944694215754E+003	0,000000000000000E+000	2,005985048202617E-002	0,000000000000000E+000	1,086593898169282E-003	1,086593898169282E-003	0,0000000E+000	0,0000000E+000	2,0000001E-002	0,000000000000000E+000	1,0926161E+000
1	1	0	0	0	0	1	8,466258218031609E+003	2,786058987428745E-005	1,114454488043570E-003	2,0000001E-002	1,3582709E+001	13	1,114454488043570E-003	0	1,2488851E+001	2,7246407E-004	1,513635948183184E-005	0,000000000000000E+000	1,307463967276823E+003	0,000000000000000E+000	2,005962495235272E-002	0,000000000000000E+000	1,114454488043570E-003	1,114454488043570E-003	0,0000000E+000	0,0000000E+000	2,0000001E-002	0,000000000000000E+000	1,0938587E+000
1	1	0	0	0	0	1	8,471258217971073E+003	2,786086458909429E-005	1,142315352632664E-003	2,0000001E-002	1,3581707E+001	13	1,142315352632664E-003	0	1,2486646E+001	2,7244663E-004	1,551475758146799E-005	0,000000000000000E+000	1,340587870601250E+003	0,000000000000000E+000	2,005982274701604E-002	0,000000000000000E+000	1,142315352632664E-003	1,142315352632664E-003	0,0000000E+000	0,0000000E+000	2,0000001E-002	0,000000000000000E+000	1,0950613E+000
1	1	0	0	0	0	1	8,476258217910538E+003	2,786086477949802E-005	1,170176217412162E-003	2,0000001E-002	1,3581427E+001	13	1,170176217412162E-003	0	1,2485042E+001	2,7244102E-004	1,589314787205396E-005	0,000000000000000E+000	1,373410098215120E+003	0,000000000000000E+000	2,005982288410673E-002	0,000000000000000E+000	1,170176217412162E-003	1,170176217412162E-003	0,0000000E+000	0,0000000E+000	2,0000001E-002	0,000000000000000E+000	1,0963850E+000
1	1	0	0	0	0	1	8,481258217850002E+003	2,786070101014856E-005	1,198036918422311E-003	2,0000001E-002	1,3582509E+001	13	1,198036918422311E-003	0	1,2485403E+001	2,7246113E-004	1,627156609540823E-005	0,000000000000000E+000	1,405613559959910E+003	0,000000000000000E+000	2,005970497017369E-002	0,000000000000000E+000	1,198036918422311E-003	1,198036918422311E-003	0,0000000E+000	0,0000000E+000	2,0000001E-002	0,000000000000000E+000	1,0971060E+000
1	1	0	0	0	0	1	8,486258217789466E+003	2,786051444253988E-005	1,225897432864851E-003	2,0000001E-002	1,3583271E+001	13	1,225897432864850E-003	0	1,2484962E+001	2,7247457E-004	1,665000301402207E-005	0,000000000000000E+000	1,437944204289059E+003	0,000000000000000E+000	2,005957064149382E-002	0,000000000000000E+000	1,225897432864850E-003	1,225897432864850E-003	0,0000000E+000	0,0000000E+000	2,0000001E-002	0,000000000000000E+000	1,0983095E+000
1	1	0	0	0	0	1	8,491258217728930E+003	2,786080431617382E-005	1,253758237181024E-003	2,0000001E-002	1,3582469E+001	13	1,253758237181024E-003	0	1,2482957E+001	2,7246133E-004	1,702842152458576E-005	0,000000000000000E+000	1,471008578533767E+003	0,000000000000000E+000	2,005977935051278E-002	0,000000000000000E+000	1,253758237181024E-003	1,253758237181024E-003	0,0000000E+000	0,0000000E+000	2,0000001E-002	0,000000000000000E+000	1,0995121E+000
1	1	0	0	0	0	1	8,493820417697920E+003	1,427711496615989E-005	1,268035352147184E-003	2,0000001E-002	1,3583110E+001	13	1,268035352147184E-003	0	1,2483038E+001	2,7247655E-004	1,722234914559288E-005	0,000000000000000E+000	1,487448944012262E+003	0,000000000000000E+000	2,005995414106290E-002	0,000000000000000E+000	1,268035352147184E-003	1,268035352147184E-003	0,0000000E+000	0,0000000E+000	2,0000001E-002	0,000000000000000E+000	1,1000719E+000
1	1	0	0	0	0	1	8,493820617697929E+003	1,114449567264981E-009	1,268036466596752E-003	2,0000001E-002	1,3582629E+001	13	1,268036466596751E-003	0	1,2482757E+001	2,7246878E-004	1,722236428274812E-005	0,000000000000000E+000	1,487683247748234E+003	0,000000000000000E+000	2,006009125796645E-002	0,000000000000000E+000	1,268036466596751E-003	1,268036466596751E-003	0,0000000E+000	0,0000000E+000	2,0000001E-002	0,000000000000000E+000	1,0998726E+000
2	1	0	1	0	0	1	8,493821817697899E+003	6,642370691729917E-009	1,268043108967443E-003	1,0999556E+000	1,2491664E+001	13	1,268043108967443E-003	0	1,2488511E+001	2,4892279E-004	1,722244725701052E-005	0,000000000000000E+000	2,308426524443799E+003	0,000000000000000E+000	1,992711257859096E-002	0,000000000000000E+000	1,268043108967443E-003	1,268043108967443E-003	0,0000000E+000	1,0999556E+000	0,0000000E+000	0,000000000000000E+000	3,1528473E-003
2	1	0	1	0	0	1	8,613821816245036E+003	6,249847189352538E-004	1,893027827902697E-003	1,0999556E+000	1,3582829E+001	13	1,893027827902697E-003	0	1,2486084E+001	2,5467185E-004	2,571150811904064E-005	0,000000000000000E+000	2,220789437710856E+003	0,000000000000000E+000	1,874954179506194E-002	0,000000000000000E+000	1,893027827902697E-003	1,893027827902697E-003	0,0000000E+000	1,0999556E+000	0,0000000E+000	0,000000000000000E+000	1,0967455E+000
2	1	0	1	0	0	1	8,733821814792173E+003	5,764073368827295E-004	2,469435164785426E-003	1,0999556E+000	1,3581306E+001	13	2,469435164785426E-003	0	1,2484281E+001	2,3485094E-004	3,353987280560769E-005	0,000000000000000E+000	2,898435306818665E+003	0,000000000000000E+000	1,729222031584214E-002	0,000000000000000E+000	2,469435164785426E-003	2,469435164785426E-003	0,0000000E+000	1,0999556E+000	0,0000000E+000	0,000000000000000E+000	1,0970259E+000
2	1	0	1	0	0	1	8,853821813339309E+003	5,406885530673381E-004	3,010123717852765E-003	1,0999556E+000	1,3581547E+001	13	3,010123717852765E-003	0	1,2484881E+001	2,2030162E-004	4,088325968436615E-005	0,000000000000000E+000	3,532777626204257E+003	0,000000000000000E+000	1,622065678840677E-002	0,000000000000000E+000	3,010123717852765E-003	3,010123717852765E-003	0,0000000E+000	1,0999556E+000	0,0000000E+000	0,000000000000000E+000	1,0966654E+000
2	1	0	1	0	0	1	8,973821811886446E+003	5,128979450791764E-004	3,523021662931941E-003	1,0999556E+000	1,3580825E+001	13	3,523021662931941E-003	0	1,2484079E+001	2,0896731E-004	4,784883684343190E-005	0,000000000000000E+000	4,135704448695497E+003	0,000000000000000E+000	1,538693853866793E-002	0,000000000000000E+000	3,523021662931941E-003	3,523021662931941E-003	0,0000000E+000	1,0999556E+000	0,0000000E+000	0,000000000000000E+000	1,0967455E+000
2	1	0	1	0	0	1	9,093821810433583E+003	4,903922276917017E-004	4,013413890623643E-003	1,0999556E+000	1,3580865E+001	13	4,013413890623643E-003	0	1,2484241E+001	1,9979852E-004	5,450878743881782E-005	0,000000000000000E+000	4,711318430640185E+003	0,000000000000000E+000	1,471176700886926E-002	0,000000000000000E+000	4,013413890623643E-003	4,013413890623643E-003	0,0000000E+000	1,0999556E+000	0,0000000E+000	0,000000000000000E+000	1,0966244E+000
2	1	0	1	0	0	1	9,213821808980720E+003	4,715318786909079E-004	4,484945769314551E-003	1,0999556E+000	1,3581627E+001	13	4,484945769314551E-003	0	1,2484681E+001	1,9212510E-004	6,091295748292390E-005	0,000000000000000E+000	5,263538569258072E+003	0,000000000000000E+000	1,414595653199507E-002	0,000000000000000E+000	4,484945769314551E-003	4,484945769314551E-003	0,0000000E+000	1,0999556E+000	0,0000000E+000	0,000000000000000E+000	1,0969458E+000
2	1	0	1	0	0	1	9,333821807527856E+003	4,557011403253095E-004	4,940646909639860E-003	1,0999556E+000	1,3581987E+001	13	4,940646909639861E-003	0	1,2485363E+001	1,8567980E-004	6,710228462032111E-005	0,000000000000000E+000	5,797668719738346E+003	0,000000000000000E+000	1,367103437527714E-002	0,000000000000000E+000	4,940646909639861E-003	4,940646909639861E-003	0,0000000E+000	1,0999556E+000	0,0000000E+000	0,000000000000000E+000	1,0966244E+000
2	1	0	1	0	0	1	9,453821806074993E+003	4,418191643515602E-004	5,382466073991420E-003	1,0999556E+000	1,3579943E+001	13	5,382466073991421E-003	0	1,2483479E+001	1,7999638E-004	7,310216355741180E-005	0,000000000000000E+000	6,320339801060765E+003	0,000000000000000E+000	1,325457509102251E-002	0,000000000000000E+000	5,382466073991421E-003	5,382466073991421E-003	0,0000000E+000	1,0999556E+000	0,0000000E+000	0,000000000000000E+000	1,0964642E+000
2	1	0	1	0	0	1	9,573821804622130E+003	4,294741848244125E-004	5,811940258815833E-003	1,0999556E+000	1,3581627E+001	13	5,811940258815834E-003	0	1,2484641E+001	1,7498875E-004	7,893512169548141E-005	0,000000000000000E+000	6,820901140835035E+003	0,000000000000000E+000	1,288422570072419E-002	0,000000000000000E+000	5,811940258815834E-003	5,811940258815834E-003	0,0000000E+000	1,0999556E+000	0,0000000E+000	0,000000000000000E+000	1,0969858E+000
2	1	0	1	0	0	1	9,693821803169267E+003	4,182597072959567E-004	6,230199966111789E-003	1,0999556E+000	1,3582589E+001	13	6,230199966111791E-003	0	1,2485764E+001	1,7043149E-004	8,461617145746211E-005	0,000000000000000E+000	7,309478356708538E+003	0,000000000000000E+000	1,254779137079724E-002	0,000000000000000E+000	6,230199966111791E-003	6,230199966111791E-003	0,0000000E+000	1,0999556E+000	0,0000000E+000	0,000000000000000E+000	1,0968256E+000
2	1	0	1	0	0	1	9,813821801716404E+003	4,083858539050238E-004	6,638585820016813E-003	1,0999556E+000	1,3580103E+001	13	6,638585820016815E-003	0	1,2483238E+001	1,6637765E-004	9,016209338478177E-005	0,000000000000000E+000	7,794926155558038E+003	0,000000000000000E+000	1,225157576548291E-002	0,000000000000000E+000	6,638585820016815E-003	6,638585820016815E-003	0,0000000E+000	1,0999556E+000	0,0000000E+000	0,000000000000000E+000	1,0968647E+000
2	1	0	1	0	0	1	9,933821800263540E+003	3,990894414341698E-004	7,037675261450983E-003	1,0999556E+000	1,3580585E+001	13	7,037675261450984E-003	0	1,2483879E+001	1,6259604E-004	9,558196127763738E-005	0,000000000000000E+000	8,262233041992495E+003	0,000000000000000E+000	1,197268338798069E-002	0,000000000000000E+000	7,037675261450984E-003	7,037675261450984E-003	0,0000000E+000	1,0999556E+000	0,0000000E+000	0,000000000000000E+000	1,0967054E+000
2	1	0	1	0	0	1	1,005382179881068E+004	3,902855085965453E-004	7,427960770047528E-003	1,0999556E+000	1,3580544E+001	13	7,427960770047530E-003	0	1,2483759E+001	1,5900869E-004	1,008822509838087E-004	0,000000000000000E+000	8,720542264948936E+003	0,000000000000000E+000	1,170856539965423E-002	0,000000000000000E+000	7,427960770047530E-003	7,427960770047530E-003	0,0000000E+000	1,0999556E+000	0,0000000E+000	0,000000000000000E+000	1,0967855E+000
2	1	0	1	0	0	1	1,017382179735781E+004	3,822452345223476E-004	7,810206004569876E-003	1,0999556E+000	1,3580183E+001	13	7,810206004569878E-003	0	1,2483358E+001	1,5572881E-004	1,060732112306520E-004	0,000000000000000E+000	9,170385087903478E+003	0,000000000000000E+000	1,146735717450794E-002	0,000000000000000E+000	7,810206004569878E-003	7,810206004569878E-003	0,0000000E+000	1,0999556E+000	0,0000000E+000	0,000000000000000E+000	1,0968246E+000
2	1	0	1	0	0	1	1,029382179590495E+004	3,747172490308682E-004	8,184923253600745E-003	1,0999556E+000	1,3579662E+001	13	8,184923253600747E-003	0	1,2482677E+001	1,5265602E-004	1,111617449390940E-004	0,000000000000000E+000	9,611993275331362E+003	0,000000000000000E+000	1,124151760702927E-002	0,000000000000000E+000	8,184923253600747E-003	8,184923253600747E-003	0,0000000E+000	1,0999556E+000	0,0000000E+000	0,000000000000000E+000	1,0969858E+000
2	1	0	1	0	0	1	1,041382179445209E+004	3,675793963000179E-004	8,552502649900762E-003	1,0999556E+000	1,3581947E+001	13	8,552502649900765E-003	0	1,2484841E+001	1,4977332E-004	1,161541889380064E-004	0,000000000000000E+000	1,003618056294687E+004	0,000000000000000E+000	1,102738202251118E-002	0,000000000000000E+000	8,552502649900765E-003	8,552502649900765E-003	0,0000000E+000	1,0999556E+000	0,0000000E+000	0,000000000000000E+000	1,0971060E+000
2	1	0	1	0	0	1	1,053382179299922E+004	3,608158884300436E-004	8,913318538330805E-003	1,0999556E+000	1,3579341E+001	13	8,913318538330809E-003	0	1,2482316E+001	1,4698926E-004	1,210538309016739E-004	0,000000000000000E+000	1,046848434198655E+004	0,000000000000000E+000	1,082447678395534E-002	0,000000000000000E+000	8,913318538330809E-003	8,913318538330809E-003	0,0000000E+000	1,0999556E+000	0,0000000E+000	0,000000000000000E+000	1,0970249E+000
2	1	0	1	0	0	1	1,065382179154636E+004	3,543502748364376E-004	9,267668813167243E-003	1,0999556E+000	1,3581587E+001	13	9,267668813167247E-003	0	1,2485042E+001	1,4437917E-004	1,258664699303521E-004	0,000000000000000E+000	1,087669098534822E+004	0,000000000000000E+000	1,063050837379875E-002	0,000000000000000E+000	9,267668813167247E-003	9,267668813167247E-003	0,0000000E+000	1,0999556E+000	0,0000000E+000	0,000000000000000E+000	1,0965452E+000
2	1	0	1	0	0	1	1,077382179009350E+004	3,481567843466376E-004	9,615825597513882E-003	1,0999556E+000	1,3581507E+001	13	9,615825597513884E-003	0	1,2484641E+001	1,4185481E-004	1,305949636397468E-004	0,000000000000000E+000	1,128558833733508E+004	0,000000000000000E+000	1,044470365685518E-002	0,000000000000000E+000	9,615825597513884E-003	9,615825597513884E-003	0,0000000E+000	1,0999556E+000	0,0000000E+000	0,000000000000000E+000	1,0968657E+000
2	1	0	1	0	0	1	1,089382178864063E+004	3,422473958861600E-004	9,958072993400041E-003	1,0999556E+000	1,3581467E+001	13	9,958072993400043E-003	0	1,2484761E+001	1,3944664E-004	1,352431852415134E-004	0,000000000000000E+000	1,168741870742883E+004	0,000000000000000E+000	1,026742200089447E-002	0,000000000000000E+000	9,958072993400043E-003	9,958072993400043E-003	0,0000000E+000	1,0999556E+000	0,0000000E+000	0,000000000000000E+000	1,0967054E+000
2	1	0	1	0	0	1	1,101382178718777E+004	3,365474573699240E-004	1,029462045076997E-002	1,0999556E+000	1,3581105E+001	13	1,029462045076997E-002	0	1,2484281E+001	1,3712060E-004	1,398138716756967E-004	0,000000000000000E+000	1,208383581833979E+004	0,000000000000000E+000	1,009642384333708E-002	0,000000000000000E+000	1,029462045076997E-002	1,029462045076997E-002	0,0000000E+000	1,0999556E+000	0,0000000E+000	0,000000000000000E+000	1,0968246E+000
2	1	0	1	0	0	1	1,102090158710205E+004	1,967895401683119E-005	1,031429940478680E-002	1,0999556E+000	1,3580063E+001	13	1,031429940478680E-002	0	1,2483238E+001	1,3588931E-004	1,400811131083866E-004	0,000000000000000E+000	1,211105117152555E+004	0,000000000000000E+000	1,000653059667468E-002	0,000000000000000E+000	1,031429940478680E-002	1,031429940478680E-002	0,0000000E+000	1,0999556E+000	0,0000000E+000	0,000000000000000E+000	1,0968246E+000
2	1	0	1	0	0	1	1,102090178710205E+004	5,548998403052489E-010	1,031429995968664E-002	1,0999556E+000	1,3580023E+001	13	1,031429995968664E-002	0	1,2483118E+001	1,3563994E-004	1,400811206439391E-004	0,000000000000000E+000	1,211121004860393E+004	0,000000000000000E+000	9,988197377817570E-003	0,000000000000000E+000	1,031429995968664E-002	1,031429995968664E-002	0,0000000E+000	1,0999556E+000	0,0000000E+000	0,000000000000000E+000	1,0969048E+000
3	1	0	0	0	0	1	1,102095018710147E+004	0,000000000000000E+000	1,031430107132589E-002	1,0999556E+000	1,0514146E+001	13	1,031429995968664E-002	0	1,3595349E+001	0,0000000E+000	1,400811206439391E-004	0,000000000000000E+000	1,211121004860393E+004	0,000000000000000E+000	0,000000000000000E+000	0,000000000000000E+000	1,031429995968664E-002	1,031429995968664E-002	0,0000000E+000	0,0000000E+000	0,0000000E+000	0,000000000000000E+000	-3,0812035E+000
3	1	0	0	0	0	1	1,108085238637624E+004	0,000000000000000E+000	1,031430107132589E-002	0,0000000E+000	1,4557331E+001	14	1,031429995968664E-002	0	1,3581638E+001	0,0000000E+000	1,400811206439391E-004	0,000000000000000E+000	1,211121004860393E+004	0,000000000000000E+000	0,000000000000000E+000	0,000000000000000E+000	1,031429995968664E-002	1,031429995968664E-002	0,0000000E+000	0,0000000E+000	0,0000000E+000	0,000000000000000E+000	9,7569275E-001
3	1	0	0	0	0	1	1,108090198637563E+004	0,000000000000000E+000	1,031430107132589E-002	0,0000000E+000	1,4557091E+001	14	1,031429995968664E-002	0	1,3582239E+001	0,0000000E+000	1,400811206439391E-004	0,000000000000000E+000	1,211121004860393E+004	0,000000000000000E+000	0,000000000000000E+000	0,000000000000000E+000	1,031429995968664E-002	1,031429995968664E-002	0,0000000E+000	0,0000000E+000	0,0000000E+000	0,000000000000000E+000	9,7485161E-001